acc_x, acc_y, acc_z, acc_temp_f, gyro_x, gyro_y, gyro_z, roll, pitch, alti_temp_f, alti_ft, humid_pct
-0.10986328125,-0.0224609375,1.005859375,69.83282352941177,-2.804878048780488,1.0670731707317074,0.39634146341463417,-6.231783975019431,-1.271647517481574,66.362,738.786663337509,46.0146484375
-0.09130859375,-0.0224609375,1.01611328125,69.82752941176471,-5.945121951219512,0.701219512195122,-0.030487804878048783,-5.133596765663415,-1.2612228252211095
-0.07275390625,-0.009765625,0.99853515625,69.79576470588236,-7.957317073170732,0.06097560975609757,0.30487804878048785,-4.16704457556542,-0.5588507376834567
-0.0576171875,-0.005859375,0.99462890625,69.87517647058823,-7.0426829268292686,0.39634146341463417,0.853658536585366,-3.315286084128618,-0.33696157794855774
-0.060546875,-0.02490234375,0.99072265625,69.83811764705882,-6.432926829268293,-0.6402439024390244,1.128048780487805,-3.49611453629451,-1.4371766479770052
-0.0634765625,-0.037109375,0.97216796875,69.78517647058824,-6.4939024390243905,-0.27439024390243905,-0.4573170731707317,-3.7330466022637023,-2.1813796892498605,66.362,738.786663337509,46.0478515625
-0.037109375,-0.037109375,0.9912109375,69.82752941176471,-7.5304878048780495,0.7621951219512195,0.030487804878048783,-2.1425626894641745,-2.1425626894641745
-0.0439453125,-0.04345703125,0.98388671875,69.76929411764706,-8.292682926829269,1.6463414634146343,1.8597560975609757,-2.554929298938445,-2.5265226776789276
-0.046875,-0.06689453125,0.99658203125,69.77988235294119,-8.353658536585366,2.073170731707317,4.573170731707317,-2.6869286991685635,-3.8359308093049242
-0.05859375,-0.09326171875,0.99462890625,69.80635294117647,-6.4939024390243905,2.8963414634146343,7.0426829268292686,-3.3567173571361923,-5.347479322623739
-0.06005859375,-0.1064453125,0.99609375,69.87517647058823,-3.1097560975609757,2.2865853658536586,6.951219512195123,-3.430933964242012,-6.088662024780276,66.362,738.786663337509,46.05859375
-0.08154296875,-0.09033203125,0.99072265625,69.89635294117647,1.0975609756097562,2.439024390243903,5.396341463414634,-4.685862056666849,-5.192244113108807
-0.07470703125,-0.03369140625,0.99560546875,69.81164705882352,5.945121951219512,1.5548780487804879,5.7926829268292686,-4.288803231566425,-1.932726967708247
-0.0595703125,-0.0234375,0.998046875,69.84870588235295,7.682926829268293,0.426829268292683,6.371951219512195,-3.414815187616895,-1.3428615216299429
-0.07763671875,-0.03466796875,0.9873046875,69.71635294117647,5.884146341463415,0.3353658536585366,4.51219512195122,-4.493444385110598,-2.0048594929992287
-0.07470703125,-0.0244140625,0.9951171875,69.82223529411766,1.0365853658536586,1.9512195121951221,1.3414634146341464,-4.292060082376253,-1.401462290706366,66.362,738.786663337509,46.1025390625
-0.0654296875,-0.02587890625,0.9970703125,69.80105882352942,-1.9512195121951221,2.5609756097560976,-0.48780487804878053,-3.753216746339683,-1.4835855960284525
-0.0595703125,-0.0126953125,0.99462890625,69.83811764705882,-2.804878048780488,4.0548780487804885,-2.9268292682926833,-3.4271859676165883,-0.7299681781569032
-0.06201171875,-0.0126953125,0.9814453125,69.81694117647058,-1.7682926829268295,3.9024390243902443,-3.9024390243902443,-3.615073444098344,-0.7396233665601378
-0.08203125,-0.01806640625,0.99658203125,69.84341176470588,-1.5853658536585367,2.8963414634146343,-1.402439024390244,-4.7047864142933875,-1.0350654536786232
-0.07470703125,-0.02197265625,1.0,69.7904705882353,-2.5,1.1890243902439026,4.725609756097561,-4.271433806601266,-1.2552410812747998,66.362,738.786663337509,46.125
-0.05908203125,-0.03857421875,1.00244140625,69.81694117647058,-2.225609756097561,2.164634146341464,5.670731707317073,-3.3705159051461138,-2.1998562201463487
-0.05126953125,-0.0263671875,0.99267578125,69.82752941176471,-1.128048780487805,2.713414634146342,4.481707317073171,-2.955534012036682,-1.5194930317213278
-0.08642578125,-0.00927734375,0.9990234375,69.78517647058824,0.0,2.5,3.1097560975609757,-4.944150824269167,-0.5300772050042899
-0.08740234375,-0.00341796875,1.0078125,69.85929411764707,-0.5487804878048781,3.3841463414634148,2.073170731707317,-4.956535413999887,-0.19358969336063978
-0.0654296875,-0.0126953125,1.02978515625,69.80635294117647,-2.0121951219512195,5.76219512195122,1.981707317073171,-3.6352522070893953,-0.7048920861849025,66.362,738.786663337509,46.125
-0.0341796875,-0.05419921875,1.0234375,69.82223529411766,-3.4756097560975614,8.231707317073171,2.6219512195121952,-1.9101184993176994,-3.029752934389456
-0.0732421875,-0.0458984375,1.03369140625,69.80635294117647,-3.4451219512195124,7.073170731707318,4.451219512195122,-4.0489419552944925,-2.5360536390825477
-0.08447265625,-0.02099609375,1.07958984375,69.8804705882353,-2.225609756097561,5.152439024390245,8.048780487804878,-4.473158202619278,-1.1107659157592475
-0.08154296875,0.009765625,1.08203125,69.85400000000001,1.1890243902439026,2.6219512195121952,10.731707317073171,-4.3095466188354905,0.515633820999459
-0.03076171875,0.01171875,1.0908203125,69.82752941176471,2.347560975609756,4.0548780487804885,8.99390243902439,-1.6152504793587705,0.6152638369550305,66.362,738.5056785043329,46.2470703125
0.04638671875,-0.048828125,1.0927734375,69.82752941176471,0.15243902439024393,10.060975609756099,8.079268292682928,2.4282473061139487,-2.5561325265011643
0.0478515625,-0.08935546875,1.08154296875,69.82223529411766,-3.658536585365854,15.182926829268293,13.597560975609758,2.52473955782537,-4.718370390681402
-0.05029296875,-0.052734375,1.1103515625,69.7904705882353,-3.414634146341464,12.835365853658537,20.03048780487805,-2.5905028641008214,-2.7163475421246637
-0.1015625,-0.046875,1.1416015625,69.82223529411766,2.2865853658536586,12.103658536585368,20.182926829268293,-5.079672459155501,-2.3420463042903066
-0.07666015625,-0.033203125,1.16845703125,69.85929411764707,6.158536585365854,15.945121951219514,17.164634146341466,-3.7521729410509246,-1.6242011277711625,66.362,738.5056785043329,46.3251953125
-0.0341796875,-0.04638671875,1.2099609375,69.83282352941177,7.25609756097561,15.975609756097562,19.176829268292686,-1.6169073723229377,-2.1946196386186507
-0.056640625,-0.00927734375,1.26318359375,69.79576470588236,7.195121951219513,10.457317073170733,22.195121951219512,-2.5673299469656192,-0.42037400895942123
-0.08447265625,0.0751953125,1.3955078125,69.85929411764707,7.865853658536586,9.969512195121952,18.75,-3.4589866223464663,3.0787092138210985
-0.0703125,0.15869140625,1.53271484375,69.86988235294118,8.841463414634147,6.432926829268293,15.914634146341465,-2.6126262470433472,5.904956848857758
-0.0068359375,0.16650390625,1.77099609375,69.93341176470588,10.457317073170733,4.939024390243903,17.347560975609756,-0.2201861495982621,5.3709549183877545,66.362,738.5056785043329,46.501953125
0.06640625,0.11181640625,2.0263671875,69.9069411764706,12.713414634146343,3.963414634146342,21.28048780487805,1.8741240285945162,3.1567282379624326
0.1142578125,0.091796875,2.2822265625,69.80635294117647,18.75,-1.7682926829268295,29.78658536585366,2.863761791543931,2.3004602465833655
0.1396484375,0.11181640625,2.5361328125,69.82752941176471,28.170731707317074,-13.353658536585368,38.29268292682927,3.1486727321521055,2.520684313457507
0.07763671875,0.12890625,2.71435546875,69.80635294117647,38.41463414634147,-28.445121951219516,46.920731707317074,1.6364990899873977,2.7178557395938774
-0.04541015625,0.13134765625,2.83349609375,69.80635294117647,46.12804878048781,-46.61585365853659,53.41463414634147,-0.9171699221439802,2.6537247385858147,66.362,738.5056785043329,46.7021484375
-0.13232421875,0.0517578125,2.8447265625,69.81164705882352,45.0609756097561,-64.20731707317074,48.201219512195124,-2.662788917497356,1.0412160914222506
-0.20654296875,-0.0078125,2.71044921875,69.83282352941177,36.00609756097561,-82.65243902439025,28.14024390243903,-4.357641115471803,-0.16466940041390718
-0.20703125,-0.0537109375,2.513671875,69.82223529411766,27.53048780487805,-94.42073170731709,9.878048780487806,-4.707302811164642,-1.2199529871312857
-0.19677734375,-0.07666015625,2.26171875,69.76929411764706,24.939024390243905,-105.3048780487805,-7.835365853658537,-4.969570055808172,-1.9339766414079493
-0.22900390625,-0.01953125,2.04931640625,69.86458823529412,29.81707317073171,-111.64634146341464,-14.908536585365855,-6.3758623778160155,-0.5426700838068522,66.362,738.5056785043329,46.9345703125
-0.267578125,0.033203125,1.83837890625,69.89105882352942,39.51219512195122,-111.03658536585367,-12.896341463414636,-8.279980278190058,1.0239248580776894
-0.38720703125,0.09423828125,1.5615234375,69.81164705882352,50.36585365853659,-107.7439024390244,-7.896341463414635,-13.902276250114891,3.3523394492491776
-0.45458984375,0.12158203125,1.29541015625,69.83282352941177,50.85365853658537,-116.12804878048782,-1.2195121951219514,-19.258801229805375,5.060982186601224
-0.4921875,0.02490234375,1.064453125,69.83282352941177,44.08536585365854,-130.51829268292684,8.048780487804878,-24.80915768969942,1.2164589372940393
-0.51513671875,-0.0830078125,0.7470703125,69.82752941176471,27.103658536585368,-142.89634146341464,14.207317073170733,-34.423817875067755,-5.226466634900099,66.362,738.2246959940958,46.95703125
-0.4462890625,-0.17919921875,0.47998046875,69.83811764705882,9.02439024390244,-144.0548780487805,11.189024390243903,-41.05839474155583,-15.29193238492085
-0.25244140625,-0.2998046875,0.248046875,69.81164705882352,-3.1097560975609757,-141.52439024390245,1.2804878048780488,-32.973839942943826,-40.268461089129076
-0.12646484375,-0.40869140625,-0.07080078125,69.84341176470588,-5.3048780487804885,-130.82317073170734,-19.085365853658537,-16.956312274824285,-70.47389134134293
0.005859375,-0.3916015625,-0.236328125,69.87517647058823,6.585365853658537,-115.64024390243904,-36.03658536585366,0.733949973086356,-58.88159681746399
0.20654296875,-0.32373046875,-0.42626953125,69.86458823529412,31.79878048780488,-96.73780487804879,-48.35365853658537,21.10018001047505,-34.35056694711707,66.362,738.5056785043329,46.95703125
0.349609375,-0.24169921875,-0.53369140625,69.77458823529412,53.04878048780488,-88.96341463414635,-39.207317073170735,30.8259733143898,-20.74842151076515
0.43603515625,-0.13525390625,-0.6220703125,69.84341176470588,73.71951219512195,-76.4939024390244,-15.640243902439027,34.408765240108515,-10.09532967553452
0.37890625,-0.02197265625,-0.64404296875,69.85400000000001,85.1829268292683,-60.88414634146342,3.536585365853659,30.454778662216484,-1.6843115058728109
0.2470703125,0.09033203125,-0.57275390625,69.8804705882353,90.91463414634147,-42.43902439024391,19.939024390243905,23.079125610573918,8.240057146976994
-0.05859375,0.1416015625,-0.52099609375,69.80105882352942,84.45121951219512,-26.82926829268293,31.615853658536587,-6.193942873519002,15.114239960326174,66.362,738.786663337509,46.9345703125
-0.26806640625,0.11474609375,-0.48046875,69.8804705882353,65.70121951219512,-19.23780487804878,33.963414634146346,-28.487170183156255,11.780567443803184
-0.39794921875,-0.02099609375,-0.4990234375,69.80105882352942,33.32317073170732,-12.134146341463415,21.34146341463415,-38.54612163322458,-1.8840848500058789
-0.38671875,-0.06591796875,-0.52392578125,69.78517647058824,9.542682926829269,-7.713414634146342,4.146341463414634,-36.2169535771847,-5.780178785553814
-0.31494140625,-0.060546875,-0.56591796875,69.77458823529412,-2.804878048780488,-4.817073170731708,-9.878048780487806,-28.958221702229153,-5.34088435967482
-0.20947265625,-0.02099609375,-0.59716796875,69.83811764705882,0.09146341463414635,0.9756097560975611,-23.53658536585366,-19.31863380643011,-1.900233211807863,66.362,738.786663337509,46.9462890625
-0.12744140625,0.02685546875,-0.6201171875,69.82752941176471,11.067073170731708,8.658536585365855,-31.371951219512198,-11.602685284255633,2.429061165831365
0.00830078125,0.134765625,-0.60888671875,69.83811764705882,23.78048780487805,20.701219512195124,-31.189024390243905,0.76259560489042,12.479025648153751
0.0908203125,0.2041015625,-0.6083984375,69.84341176470588,28.750000000000004,30.33536585365854,-23.414634146341466,8.05535171987258,18.35569101265623
0.119140625,0.29052734375,-0.57275390625,69.74811764705882,23.10975609756098,44.08536585365854,-5.609756097560976,10.509593006435836,26.409727775285873
0.08349609375,0.328125,-0.46630859375,69.83811764705882,9.664634146341465,55.1219512195122,9.878048780487806,8.331016099182952,34.708363256139116,66.362,738.786663337509,46.9345703125
-0.01513671875,0.29833984375,-0.3701171875,69.7904705882353,-9.817073170731708,65.42682926829269,18.719512195121954,-1.8237268727381328,38.84780688627112
-0.12158203125,0.1796875,-0.2685546875,69.86988235294118,-41.28048780487805,78.8719512195122,14.329268292682928,-20.61982963525015,31.363758464054545
-0.1884765625,0.04296875,-0.166015625,69.81694117647058,-68.84146341463415,90.45731707317074,4.420731707317073,-47.70238180450797,9.70799596207544
-0.18798828125,-0.14111328125,-0.04345703125,69.87517647058823,-94.35975609756099,103.9329268292683,-11.646341463414634,-51.852548281282125,-36.18032034314385
-0.16796875,-0.13671875,0.12060546875,69.82223529411766,-100.06097560975611,111.21951219512196,-21.371951219512198,-42.655156895656795,-33.47149704897604,66.362,739.0676504936887,46.9130859375
-0.09423828125,-0.08740234375,0.29541015625,69.80105882352942,-96.40243902439025,117.6829268292683,-19.35975609756098,-17.008882232584128,-15.741691918100383
0.02392578125,-0.07080078125,0.47265625,69.83811764705882,-78.9939024390244,125.42682926829269,-8.26219512195122,2.865909319317879,-8.508453616520358
0.04296875,-0.13671875,0.5869140625,69.84341176470588,-66.95121951219512,134.359756097561,-0.6097560975609757,4.07841953079501,-13.079127954839324
-0.02978515625,-0.18994140625,0.68505859375,69.85400000000001,-62.10365853658537,146.09756097560978,3.2926829268292686,-2.399154770578254,-15.482801539439132
-0.18310546875,-0.12744140625,0.73876953125,69.81694117647058,-66.46341463414635,152.13414634146343,10.884146341463415,-13.725456792182952,-9.5053541732561,66.362,739.0676504936887,46.890625
-0.28955078125,-0.0751953125,1.03173828125,69.82752941176471,-71.89024390243902,150.82317073170734,28.84146341463415,-15.636998546208373,-4.013931562603851
-0.28564453125,-0.14013671875,1.22216796875,69.84870588235295,-73.62804878048782,147.37804878048783,35.274390243902445,-13.072321866902493,-6.370883327068735
-0.26708984375,-0.26416015625,1.39013671875,69.79576470588236,-76.21951219512196,146.06707317073173,20.914634146341466,-10.689069883516769,-10.570465949748122
-0.19873046875,-0.3935546875,1.5966796875,69.77988235294119,-82.77439024390245,147.0426829268293,-14.390243902439027,-6.890663479524696,-13.74445561687361
-0.083984375,-0.43017578125,1.80029296875,69.84341176470588,-88.04878048780489,148.50609756097563,-42.83536585365854,-2.5979032118373926,-13.424638054098281,66.362,739.0676504936887,46.9013671875
0.0673828125,-0.4375,2.06982421875,69.81694117647058,-87.31707317073172,151.859756097561,-57.22560975609757,1.824317299342913,-11.928833066120468
0.14013671875,-0.4345703125,2.27099609375,69.83282352941177,-77.7439024390244,153.78048780487805,-53.993902439024396,3.4683109733083524,-10.812892284955867
0.10693359375,-0.34912109375,2.46826171875,69.82223529411766,-65.82317073170732,151.46341463414635,-36.55487804878049,2.4562804996819967,-8.043299461506173
0.0595703125,-0.20703125,2.69921875,69.73752941176471,-55.76219512195122,145.09146341463415,-8.323170731707318,1.2605806071735666,-4.384960110232301
-0.01806640625,-0.05810546875,2.90185546875,69.77988235294119,-46.554878048780495,127.95731707317074,31.250000000000004,-0.35663664958676844,-1.147089796899265,66.362,739.0676504936887,46.90234375
-0.10107421875,-0.06005859375,3.0283203125,69.86988235294118,-38.68902439024391,107.16463414634147,57.50000000000001,-1.9112376863382188,-1.135526707043928
-0.275390625,-0.22314453125,3.1396484375,69.7904705882353,-26.219512195121954,82.8658536585366,64.1158536585366,-5.000254476351378,-4.049855015798021
-0.46484375,-0.396484375,3.19970703125,69.78517647058824,-15.000000000000002,63.41463414634147,41.676829268292686,-8.204048919547871,-6.99101821982324
-0.66845703125,-0.4765625,3.20849609375,69.7904705882353,-4.024390243902439,43.23170731707317,3.5670731707317076,-11.64443490384909,-8.273347057109605
-0.916015625,-0.43701171875,3.20556640625,69.75341176470589,12.896341463414636,16.981707317073173,-35.487804878048784,-15.808874039604827,-7.467873507267645,66.362,739.0676504936887,46.9130859375
-0.900390625,-0.294921875,3.1044921875,69.83282352941177,34.207317073170735,-3.780487804878049,-53.56707317073171,-16.104930480873506,-5.213151183238447
-0.86376953125,-0.14013671875,3.025390625,69.7904705882353,60.1829268292683,-31.82926829268293,-53.018292682926834,-15.918201837932585,-2.550292994534077
-0.69384765625,0.02490234375,2.935546875,69.79576470588236,92.83536585365854,-59.84756097560976,-37.65243902439025,-13.297944756930104,0.4729982110157797
-0.5986328125,0.16357421875,2.7236328125,69.76929411764706,114.63414634146342,-77.59146341463415,-19.02439024390244,-12.374445054041495,3.3569665978264096
-0.60693359375,0.30126953125,2.50732421875,69.74282352941177,120.97560975609757,-99.57317073170732,4.817073170731708,-13.513911485598726,6.661003098735571,66.362,739.0676504936887,46.9345703125
-0.6484375,0.34375,2.26025390625,69.81164705882352,113.35365853658537,-112.98780487804879,15.30487804878049,-15.834697806508897,8.317024506670462
-0.650390625,0.29296875,1.935546875,69.81694117647058,92.13414634146342,-126.31097560975611,10.975609756097562,-18.37854479966502,8.164994194928514
-0.6005859375,0.185546875,1.7099609375,69.7904705882353,70.0609756097561,-134.5426829268293,-4.786585365853659,-19.24808943952143,5.845476723644011
-0.51220703125,0.03173828125,1.46142578125,69.80635294117647,50.76219512195122,-137.34756097560978,-28.323170731707318,-19.31055483454206,1.1741123647542833
-0.39013671875,-0.16943359375,1.15380859375,69.80105882352942,39.207317073170735,-134.81707317073173,-59.32926829268293,-18.497236509385186,-7.919594687993701,66.362,739.0676504936887,46.869140625
-0.29052734375,-0.24169921875,0.89990234375,69.79576470588236,42.07317073170732,-129.78658536585368,-78.10975609756099,-17.317115730501783,-14.337499438354945
-0.146484375,-0.2021484375,0.6728515625,69.73752941176471,58.14024390243903,-120.88414634146342,-83.8719512195122,-11.777457888590185,-16.360083827568285
-0.03369140625,-0.1015625,0.51416015625,69.84870588235295,79.66463414634147,-106.18902439024392,-73.41463414634147,-3.6781932620019995,-11.15052595764486
0.03271484375,0.0380859375,0.38232421875,69.78517647058824,101.92073170731709,-97.50000000000001,-48.38414634146342,4.866818708374197,5.668279330284583
0.00390625,0.2041015625,0.34423828125,69.80635294117647,122.34756097560977,-90.85365853658537,-7.896341463414635,0.5592362481199278,30.662414295554882,66.362,739.0676504936887,46.8583984375
-0.04150390625,0.31494140625,0.3427734375,69.82752941176471,131.06707317073173,-85.27439024390245,21.82926829268293,-5.095110007098622,42.36923475557445
-0.09765625,0.365234375,0.3212890625,69.84341176470588,130.15243902439025,-78.59756097560977,37.19512195121951,-11.35165764341101,47.40404597633645
-0.15673828125,0.37548828125,0.30322265625,69.80635294117647,116.28048780487806,-72.19512195121952,36.55487804878049,-17.991520858715933,47.727656043781
-0.173828125,0.3388671875,0.3076171875,69.78517647058824,86.15853658536587,-59.57317073170732,16.920731707317074,-20.79744518683267,43.802750212307814
-0.11279296875,0.24951171875,0.27880859375,69.84341176470588,55.701219512195124,-42.31707317073171,-9.176829268292684,-16.776079008424617,39.67925279063809,66.362,739.0676504936887,46.8359375
-0.08984375,0.169921875,0.2578125,69.73223529411764,22.621951219512198,-20.48780487804878,-37.65243902439025,-16.223426154244557,31.897387833087446
-0.08740234375,0.11376953125,0.24267578125,69.83282352941177,5.152439024390245,-3.2926829268292686,-54.024390243902445,-18.061307178135827,23.8011967904078
-0.15625,0.10107421875,0.20263671875,69.74282352941177,-0.15243902439024393,12.286585365853659,-62.957317073170735,-34.60610301207854,21.554164841792893
-0.31103515625,0.1171875,0.197265625,69.82223529411766,4.0548780487804885,16.03658536585366,-56.768292682926834,-53.58405268788531,17.64957051717342
-0.41259765625,0.14697265625,0.2158203125,69.77458823529412,13.323170731707318,16.00609756097561,-34.451219512195124,-57.672388557808866,17.51776575956832,66.362,739.0676504936887,46.7802734375
-0.41015625,0.15478515625,0.18994140625,69.80105882352942,25.27439024390244,14.02439024390244,-4.451219512195122,-59.14637088017953,18.903432306637708
-0.41845703125,0.18359375,0.1875,69.81164705882352,35.85365853658537,10.24390243902439,25.54878048780488,-57.90787663011907,21.8203842537458
-0.40087890625,0.2158203125,0.19775390625,69.78517647058824,43.41463414634147,3.231707317073171,52.01219512195122,-53.86324417989325,25.772071506221693
-0.32421875,0.1923828125,0.17236328125,69.73223529411764,43.29268292682927,8.109756097560977,56.18902439024391,-51.45593270918364,27.651648245983058
-0.2734375,0.24169921875,0.13232421875,69.81164705882352,34.390243902439025,17.439024390243905,49.66463414634147,-44.77945023369621,38.50781047110951,66.362,739.3486399729043,46.779296875
-0.25390625,0.28173828125,0.1845703125,69.79576470588236,22.896341463414636,24.451219512195124,35.76219512195122,-37.010829774886524,41.90909502161341
-0.2099609375,0.24462890625,0.16796875,69.83811764705882,10.945121951219512,32.22560975609756,18.50609756097561,-35.281310362151245,42.296018243734686
-0.1669921875,0.19384765625,0.166015625,69.79576470588236,-2.8353658536585367,38.41463414634147,5.670731707317073,-33.19682561768985,39.462111388848015
-0.16748046875,0.18994140625,0.16357421875,69.80105882352942,-16.06707317073171,38.90243902439025,-0.9451219512195123,-33.748373978589484,39.053917260520976
-0.2021484375,0.208984375,0.2265625,69.76929411764706,-19.603658536585368,33.65853658536586,0.9146341463414634,-33.258415194770734,34.538614044244724,66.362,739.3486399729043,46.7578125
-0.1640625,0.2294921875,0.26953125,69.82752941176471,-15.243902439024392,32.713414634146346,9.390243902439025,-24.86571998299031,36.02864802040668
-0.0986328125,0.23291015625,0.29443359375,69.82223529411766,-7.195121951219513,31.12804878048781,24.05487804878049,-14.720543031988697,36.87271959077351
-0.03271484375,0.2275390625,0.3125,69.81164705882352,1.4329268292682928,31.58536585365854,39.72560975609756,-4.837428324477632,35.910836934167904
0.05126953125,0.22998046875,0.3291015625,69.78517647058824,9.908536585365855,36.524390243902445,46.920731707317074,7.277076375512046,34.624476253407
0.05419921875,0.283203125,0.38671875,69.76929411764706,13.201219512195124,42.5609756097561,39.72560975609756,6.451223185386533,35.95094294906797,66.362,739.3486399729043,46.7353515625
0.02294921875,0.3154296875,0.4951171875,69.77988235294119,11.219512195121952,46.98170731707317,24.664634146341466,2.238662165715613,32.472577710870574
-0.087890625,0.3330078125,0.56689453125,69.84870588235295,3.1707317073170733,44.84756097560976,11.829268292682928,-7.614188854982089,30.13471275647767
-0.06640625,0.31884765625,0.64794921875,69.76929411764706,-13.475609756097562,42.713414634146346,0.5792682926829269,-5.253925756255788,26.082823514438925
-0.048828125,0.35205078125,0.7412109375,69.80635294117647,-27.34756097560976,38.71951219512196,-8.810975609756099,-3.405381642970341,25.3581355082013
-0.0732421875,0.396484375,0.7783203125,69.80635294117647,-29.39024390243903,31.676829268292686,-10.060975609756099,-4.793049954751898,26.892740596965204,66.362,739.3486399729043,46.6689453125
-0.02978515625,0.4453125,0.865234375,69.77988235294119,-24.84756097560976,28.689024390243905,0.6402439024390244,-1.7531825812295225,27.21984007878115
0.02734375,0.55615234375,0.9091796875,69.73752941176471,-15.670731707317074,29.29878048780488,7.439024390243903,1.4696465067625022,31.44292413904294
0.00927734375,0.607421875,0.94775390625,69.79576470588236,-5.609756097560976,31.03658536585366,25.09146341463415,0.47218705001072203,32.654837384984134
-0.0087890625,0.62451171875,0.97705078125,69.80105882352942,-6.371951219512195,31.219512195121954,36.646341463414636,-0.434263524211741,32.584865029091645
-0.05029296875,0.60205078125,0.99951171875,69.82223529411766,-11.28048780487805,31.432926829268297,38.75,-2.468051038191077,31.030434849382925,66.362,739.3486399729043,46.6572265625
-0.10888671875,0.5498046875,0.99951171875,69.7904705882353,-21.128048780487806,34.78658536585366,23.689024390243905,-5.4524735062117955,28.671511866551683
-0.13916015625,0.54052734375,1.00732421875,69.84341176470588,-28.993902439024392,40.85365853658537,2.8963414634146343,-6.940480231780065,27.992827483477235
-0.21337890625,0.64453125,1.02099609375,69.82752941176471,-33.8719512195122,41.3109756097561,-20.30487804878049,-10.022037536150737,31.71301654448395
-0.28076171875,0.67529296875,1.07275390625,69.78517647058824,-33.04878048780488,34.75609756097561,-26.79878048780488,-12.488821071117508,31.340714284706955
-0.2880859375,0.568359375,1.087890625,69.80105882352942,-37.34756097560976,27.59146341463415,-23.8109756097561,-13.20881467332292,26.795322323302827,66.362,739.3486399729043,46.61328125
-0.23681640625,0.51513671875,1.0810546875,69.74811764705882,-40.09146341463415,22.652439024390247,-19.603658536585368,-11.186270604974382,24.96082224112687
-0.23095703125,0.52392578125,1.06103515625,69.7904705882353,-37.31707317073171,17.408536585365855,-10.731707317073171,-11.043803983670779,25.756811655274326
-0.20068359375,0.46630859375,1.05224609375,69.82223529411766,-32.31707317073171,16.3109756097561,10.670731707317074,-9.890927386782623,23.523937023289317
-0.13818359375,0.3974609375,0.99755859375,69.77458823529412,-26.615853658536587,18.84146341463415,19.908536585365855,-7.332730789864762,21.537424107599566
-0.1123046875,0.36962890625,0.94873046875,69.85929411764707,-18.8109756097561,25.853658536585368,27.042682926829272,-6.294175844275651,21.151575417896634,66.362,739.3486399729043,46.61328125
-0.16552734375,0.33837890625,0.94970703125,69.78517647058824,-13.26219512195122,29.634146341463417,32.46951219512195,-9.323806763897084,19.341411744612966
-0.2587890625,0.2578125,0.9501953125,69.83282352941177,-9.603658536585368,30.152439024390247,35.0609756097561,-14.727070319309162,14.670246760291095
-0.30810546875,0.18310546875,0.94970703125,69.7904705882353,-8.689024390243903,28.932926829268297,27.652439024390247,-17.669530677659726,10.3921364472341
-0.337890625,0.12841796875,0.98486328125,69.81164705882352,-10.51829268292683,23.902439024390247,12.439024390243903,-18.788504911449863,7.031061377671952
-0.31005859375,0.041015625,1.02783203125,69.85400000000001,-12.987804878048781,21.158536585365855,-6.128048780487806,-16.77400479143593,2.1878936228985983,66.362,739.6296317752041,46.580078125
-0.24462890625,-0.0556640625,0.99951171875,69.80635294117647,-12.926829268292684,23.04878048780488,-25.152439024390247,-13.732229721989956,-3.096376411617135
-0.23583984375,-0.02490234375,1.0205078125,69.86458823529412,-9.481707317073171,21.402439024390247,-25.213414634146343,-13.008894221500482,-1.36196680656958
-0.234375,0.10400390625,1.01611328125,69.7904705882353,1.1585365853658538,20.09146341463415,-7.195121951219513,-12.923348920339187,5.695609618154558
-0.2216796875,0.25,1.01318359375,69.7904705882353,9.634146341463415,16.03658536585366,17.59146341463415,-11.992738371292326,13.552325596827814
-0.13427734375,0.29296875,1.04833984375,69.78517647058824,12.896341463414636,11.55487804878049,47.04268292682927,-7.032433769356777,15.493114819050545,66.362,739.3486399729043,46.568359375
-0.0888671875,0.28125,0.98779296875,69.82223529411766,9.573170731707318,11.310975609756099,61.21951219512196,-4.945283144245086,15.832294385431535
-0.0947265625,0.24755859375,0.92626953125,69.75870588235294,2.3170731707317076,16.432926829268293,63.35365853658537,-5.642453225133028,14.889188445276314
-0.162109375,0.2646484375,0.9130859375,69.80635294117647,-7.77439024390244,22.957317073170735,54.176829268292686,-9.677111579539718,15.927520178302446
-0.3408203125,0.30029296875,0.96142578125,69.80105882352942,-16.00609756097561,16.73780487804878,41.61585365853659,-18.694449089390233,16.40395447858919
-0.5009765625,0.2216796875,1.05810546875,69.86458823529412,-25.426829268292686,2.5914634146341466,19.725609756097562,-24.8632306068999,10.722279096865748,66.362,739.3486399729043,46.580078125
-0.4423828125,0.1025390625,0.95849609375,69.75870588235294,-34.207317073170735,-0.5487804878048781,-0.426829268292683,-24.651330688483814,5.547889212563889
-0.28759765625,0.01416015625,0.89111328125,69.78517647058824,-42.34756097560976,-1.4939024390243905,-11.951219512195124,-17.88483780659092,0.8663801055773815
-0.15380859375,-0.09814453125,0.86083984375,69.82752941176471,-44.87804878048781,0.853658536585366,-13.445121951219514,-10.066429841830125,-6.403669698469914
-0.072265625,-0.169921875,0.78271484375,69.79576470588236,-38.993902439024396,5.7926829268292686,-6.707317073170732,-5.155565683466035,-12.19813311409672
-0.0546875,-0.041015625,0.7099609375,69.7904705882353,-23.750000000000004,10.091463414634147,23.56707317073171,-4.397428640831883,-3.2966532106118893,66.362,739.6296317752041,46.5791015625
0.0263671875,0.03466796875,0.75390625,69.80105882352942,-6.4939024390243905,5.609756097560976,59.81707317073171,2.0009387762037902,2.6312540022381126
0.12353515625,0.02001953125,0.8193359375,69.77988235294119,8.932926829268293,-1.2195121951219514,86.6158536585366,8.571652466036236,1.3840408538212614
0.212890625,0.08349609375,0.8212890625,69.81164705882352,12.347560975609758,5.731707317073171,84.42073170731707,14.460700295644678,5.620502845171788
0.23828125,0.1748046875,0.93505859375,69.79576470588236,4.115853658536586,12.53048780487805,70.09146341463415,14.062703748984346,10.268099086456346
0.15966796875,0.0947265625,1.056640625,69.82223529411766,-27.073170731707318,13.871951219512196,39.268292682926834,8.559087424777756,5.065600143755072,66.362,739.6296317752041,46.5458984375
0.0302734375,-0.10693359375,1.02197265625,69.76400000000001,-70.85365853658537,18.658536585365855,0.15243902439024393,1.6875435764690367,-5.970778531151887
-0.0185546875,-0.30419921875,1.04931640625,69.84341176470588,-127.6829268292683,26.79878048780488,-52.6829268292683,-0.9729818574000036,-16.1645993427032
0.0205078125,-0.33203125,1.13525390625,69.73223529411764,-156.64634146341464,33.29268292682927,-88.17073170731707,0.9933045679468875,-16.300261006387366
0.02880859375,-0.2685546875,1.27294921875,69.75870588235294,-160.94512195121953,32.6829268292683,-100.51829268292684,1.268547240760954,-11.910061142125032
0.02294921875,-0.08251953125,1.44970703125,69.76400000000001,-138.9939024390244,27.83536585365854,-84.0548780487805,0.9054650748045507,-3.2574402444126793,66.362,739.6296317752041,46.5341796875
0.0263671875,0.103515625,1.65576171875,69.82223529411766,-103.81097560975611,17.439024390243905,-51.18902439024391,0.9105524370308441,3.576933960587698
0.04150390625,0.3037109375,1.72802734375,69.77988235294119,-55.54878048780488,4.298780487804878,-2.4695121951219514,1.3551077148378863,9.965444665887572
0.04541015625,0.43408203125,1.7890625,69.80635294117647,-27.652439024390247,-6.067073170731708,34.93902439024391,1.4129954965685907,13.633956177624153
0.10107421875,0.4462890625,1.88427734375,69.79576470588236,-17.5609756097561,-11.951219512195124,60.518292682926834,2.9879426859098013,13.30645326766717
0.15966796875,0.34130859375,1.86328125,69.80635294117647,-28.10975609756098,-10.548780487804878,50.0609756097561,4.818037582640918,10.343058746897956,66.362,739.3486399729043,46.5341796875
0.13134765625,0.115234375,1.8642578125,69.77458823529412,-63.14024390243903,-9.390243902439025,4.451219512195122,4.0225045843097424,3.528368845331095
0.1318359375,-0.1474609375,1.80419921875,69.80105882352942,-102.04268292682927,-8.414634146341465,-41.06707317073171,4.1654327313121735,-4.660146944013653
0.0712890625,-0.37744140625,1.7822265625,69.82752941176471,-133.41463414634148,-10.701219512195124,-83.44512195121952,2.240958861613187,-11.948188182633288
0.064453125,-0.5751953125,1.7724609375,69.73223529411764,-138.26219512195124,-17.225609756097562,-118.41463414634147,1.980954155760485,-17.96806333866153
0.18798828125,-0.72314453125,1.76123046875,69.80105882352942,-112.22560975609757,-25.48780487804878,-126.73780487804879,5.638995275643659,-22.20879090759506,66.362,739.3486399729043,46.5341796875
0.39892578125,-0.70263671875,1.77734375,69.79576470588236,-50.396341463414636,-33.109756097560975,-107.31707317073172,11.790154920724865,-21.09326387872106
0.56201171875,-0.61376953125,1.77978515625,69.82223529411766,15.365853658536587,-34.69512195121951,-62.53048780487806,16.62155191734937,-18.203452089040685
0.6630859375,-0.49609375,1.78857421875,69.76400000000001,77.37804878048782,-36.768292682926834,-4.5426829268292686,19.659111060763873,-14.57802187747358
0.6044921875,-0.44189453125,1.91650390625,69.82223529411766,124.72560975609757,-34.93902439024391,50.82317073170732,17.084801763140344,-12.40164443488244
0.34375,-0.54296875,1.88037109375,69.76400000000001,128.6890243902439,-34.93902439024391,68.20121951219512,9.961490435362592,-15.85713411597928,66.344,739.6296317752041,46.5341796875
0.06591796875,-0.67822265625,1.88330078125,69.73752941176471,102.89634146341464,-40.76219512195122,55.54878048780488,1.886124154074868,-19.794009866942762
-0.19189453125,-0.77880859375,1.83056640625,69.80635294117647,61.82926829268293,-46.21951219512196,27.25609756097561,-5.509754989781916,-22.934596226280853
-0.24267578125,-0.873046875,1.76513671875,69.80635294117647,20.396341463414636,-49.84756097560976,-22.469512195121954,-7.0253119292285415,-26.104699337869896
-0.1474609375,-0.91357421875,1.64794921875,69.80635294117647,6.2804878048780495,-55.365853658536594,-67.5609756097561,-4.474860211416915,-28.905908174273666
0.015625,-0.84765625,1.36328125,69.77458823529412,18.84146341463415,-59.75609756097562,-112.46951219512196,0.5576567225408265,-31.87069066482185,66.344,739.6296317752041,46.5234375
0.1494140625,-0.7412109375,1.17431640625,69.73752941176471,47.10365853658537,-55.64024390243903,-127.19512195121952,6.141105719434651,-32.05221342599739
0.29345703125,-0.65673828125,0.99755859375,69.80105882352942,78.75,-51.40243902439025,-105.82317073170732,13.804570316941142,-32.27585871054525
0.40966796875,-0.48828125,0.84033203125,69.80635294117647,106.92073170731709,-39.96951219512196,-52.40853658536586,22.85617202936375,-27.577948442567262
0.359375,-0.3427734375,0.83642578125,69.81164705882352,117.98780487804879,-24.05487804878049,-12.896341463414636,21.681111877312237,-20.632582201719828
-0.041015625,-0.3662109375,0.8837890625,69.80635294117647,104.84756097560977,-13.658536585365855,8.140243902439025,-2.454989270155534,-22.485599537036382,66.344,739.6296317752041,46.5009765625
-0.45849609375,-0.55419921875,0.8408203125,69.81694117647058,65.0609756097561,-20.670731707317074,8.689024390243903,-24.479488691141764,-30.05688006641989
-0.728515625,-0.77783203125,0.75732421875,69.77988235294119,10.426829268292684,-24.32926829268293,-8.78048780487805,-33.864053883787044,-36.50872659058702
-0.66796875,-0.9140625,0.71875,69.75341176470589,-40.94512195121951,-23.445121951219516,-53.75000000000001,-29.875077248391605,-42.97076029968838
-0.49951171875,-0.828125,0.6650390625,69.85400000000001,-53.90243902439025,-28.07926829268293,-90.45731707317074,-25.187757544567297,-44.8752684991902
-0.24951171875,-0.68212890625,0.5673828125,69.77988235294119,-30.884146341463417,-31.493902439024392,-112.53048780487806,-15.706901537607015,-47.73988758969206,66.344,739.6296317752041,46.490234375
0.06298828125,-0.51953125,0.419921875,69.83811764705882,8.567073170731708,-25.396341463414636,-107.50000000000001,5.386572799348346,-50.74041948019791
0.35302734375,-0.30419921875,0.31494140625,69.83282352941177,56.4329268292683,-9.817073170731708,-72.22560975609757,38.87742906316574,-32.74108795423481
0.44091796875,-0.15234375,0.24609375,69.77458823529412,81.70731707317074,3.2926829268292686,-31.402439024390247,56.71790462495744,-16.788712981176573
0.43359375,-0.09130859375,0.236328125,69.79576470588236,89.45121951219512,9.664634146341465,0.8231707317073171,59.701747965451,-10.47589827755756
0.18310546875,-0.09228515625,0.166015625,69.7904705882353,73.44512195121952,13.231707317073171,15.853658536585368,43.95019483336949,-20.47462628827394,66.344,739.6296317752041,46.490234375
-0.05078125,-0.05029296875,0.138671875,69.74282352941177,40.60975609756098,15.03048780487805,5.945121951219512,-18.99631918285535,-18.80676906517206
-0.20849609375,0.03125,0.16748046875,69.76929411764706,-1.1585365853658538,15.823170731707318,-23.475609756097562,-50.746288395101445,6.664887683629068
-0.302734375,0.03466796875,0.19921875,69.77458823529412,-49.72560975609756,19.939024390243905,-75.03048780487805,-56.25888999976999,5.464359389865139
-0.2705078125,0.033203125,0.12744140625,69.81694117647058,-81.34146341463415,24.573170731707318,-115.97560975609757,-64.04103978998894,6.336057080479436
-0.15185546875,0.06982421875,0.0927734375,69.71635294117647,-99.48170731707317,30.701219512195124,-145.1829268292683,-52.59733966148899,21.423861052937042,66.344,739.9106259006205,46.4677734375
-0.07666015625,0.13134765625,0.013671875,69.81694117647058,-94.69512195121952,43.07926829268293,-146.4329268292683,-30.1354576054287,59.338320104788245
-0.03369140625,0.248046875,-0.0107421875,69.83282352941177,-78.78048780487805,55.335365853658544,-124.0548780487805,-7.727809585652249,81.88637370224808
-0.13330078125,0.3349609375,-0.05908203125,69.75870588235294,-52.31707317073171,66.00609756097562,-73.9329268292683,-21.40068026868381,66.47667176436447
-0.31884765625,0.3486328125,-0.0537109375,69.81164705882352,-33.53658536585366,69.45121951219512,-28.53658536585366,-42.11048156477643,47.155583334984605
-0.52880859375,0.25927734375,-0.05419921875,69.77988235294119,-26.85975609756098,71.3719512195122,3.1707317073170733,-63.39358597871142,26.000784547331534,66.344,739.9106259006205,46.4462890625
-0.7470703125,0.15625,-0.0517578125,69.83282352941177,-37.6219512195122,73.96341463414635,9.146341463414634,-77.57474471545714,11.785686654164671
-0.9189453125,0.09375,-0.0263671875,69.82752941176471,-57.19512195121952,76.15853658536587,-11.097560975609756,-83.95052925033177,5.822732311346171
-0.9873046875,0.0673828125,0.0283203125,69.76400000000001,-87.04268292682927,79.45121951219512,-58.07926829268293,-85.76599383702562,3.9027395801323257
-0.9072265625,0.00537109375,0.0927734375,69.74282352941177,-107.31707317073172,84.90853658536587,-101.03658536585367,-84.15149194164914,0.3374470401091432
-0.77197265625,0.021484375,0.07861328125,69.78517647058824,-121.09756097560977,92.65243902439025,-126.12804878048782,-83.97367839907018,1.585960009559775,66.344,739.9106259006205,46.4130859375
-0.6982421875,-0.0126953125,0.138671875,69.76400000000001,-126.15853658536587,105.48780487804879,-120.42682926829269,-78.72136720079126,-1.0216771274460128
-0.77392578125,-0.15380859375,0.158203125,69.81164705882352,-120.79268292682927,116.82926829268294,-91.6158536585366,-74.08706388582192,-11.018294040357933
-1.06640625,-0.23046875,0.23828125,69.75870588235294,-103.07926829268294,121.5548780487805,-39.81707317073171,-72.73165530820864,-11.910044359563463
-1.42822265625,-0.119140625,0.38134765625,69.87517647058823,-75.88414634146342,112.6829268292683,6.00609756097561,-74.3717779514522,-4.607810838763385
-1.732421875,0.1357421875,0.58740234375,69.82223529411766,-28.993902439024392,90.91463414634147,41.3719512195122,-70.81210903958541,4.243830769913991,66.344,739.9106259006205,46.4130859375
-1.87890625,0.44140625,0.75634765625,69.7904705882353,9.146341463414634,75.48780487804879,47.926829268292686,-65.01050564489628,12.294382003018164
-1.8193359375,0.583984375,1.02978515625,69.85929411764707,32.13414634146342,54.96951219512196,36.25,-56.94781973881212,15.607361802740254
-1.58447265625,0.59130859375,1.21044921875,69.80635294117647,27.042682926829272,40.82317073170732,-5.701219512195123,-49.627997377157286,16.51798327747639
-1.3115234375,0.5908203125,1.3203125,69.76929411764706,-4.359756097560976,38.38414634146342,-42.804878048780495,-42.198669695211905,17.61332872763323
-1.05810546875,0.55712890625,1.46044921875,69.83811764705882,-51.61585365853659,43.963414634146346,-65.79268292682927,-34.09502929442689,17.16700469411368,66.344,739.9106259006205,46.4130859375
-0.8837890625,0.4013671875,1.47900390625,69.82752941176471,-78.26219512195122,46.3719512195122,-65.57926829268293,-29.97198804796668,13.11342485069487
-0.8642578125,0.1953125,1.46484375,69.80105882352942,-87.34756097560977,47.86585365853659,-48.41463414634147,-30.320140300849097,6.550916769226215
-0.92919921875,-0.0703125,1.5537109375,69.76929411764706,-76.82926829268294,47.804878048780495,-25.182926829268293,-30.85578728321274,-2.224181922837974
-0.9609375,-0.275390625,1.77294921875,69.81164705882352,-52.31707317073171,38.50609756097561,4.5426829268292686,-28.17247740448866,-7.776245032341184
-0.78662109375,-0.267578125,2.0654296875,69.7904705882353,-6.646341463414635,23.384146341463417,48.59756097560976,-20.69128750494413,-6.90307429524512,66.344,739.9106259006205,46.390625
-0.50439453125,-0.1220703125,2.185546875,69.77988235294119,39.48170731707317,11.341463414634147,82.8658536585366,-12.976013418426808,-3.1151291474951566
-0.30029296875,0.10546875,2.298828125,69.80105882352942,83.68902439024392,1.7682926829268295,105.51829268292684,-7.434600579680104,2.604752603936705
-0.2919921875,0.2861328125,2.328125,69.78517647058824,96.4329268292683,-1.7987804878048783,108.9939024390244,-7.095838478021616,6.952736684388023
-0.40966796875,0.396484375,2.34912109375,69.75870588235294,76.73780487804879,-6.402439024390245,108.62804878048782,-9.757151717523708,9.440233333490102
-0.42724609375,0.35009765625,2.419921875,69.75341176470589,39.54268292682927,-17.134146341463417,114.42073170731709,-9.911485829374113,8.108345590421767,66.344,739.9106259006205,46.4013671875
-0.3544921875,0.23876953125,2.35205078125,69.82223529411766,-2.439024390243903,-34.69512195121951,118.84146341463416,-8.527715600390716,5.732249171267623
-0.1650390625,0.05419921875,2.17578125,69.80635294117647,-36.55487804878049,-52.13414634146342,110.97560975609757,-4.336397707437693,1.4228703508806264
-0.0185546875,-0.142578125,1.9638671875,69.84870588235295,-45.1219512195122,-64.20731707317074,97.10365853658537,-0.5398955668234332,-4.152243409264031
0.1298828125,-0.40576171875,1.67626953125,69.77458823529412,-41.25000000000001,-76.58536585365854,78.78048780487805,4.306720771750893,-13.568249875905467
0.30712890625,-0.6669921875,1.49658203125,69.77458823529412,-31.06707317073171,-83.20121951219512,66.82926829268293,10.616708935363981,-23.585046083223038,66.344,740.1916223492179,46.4130859375
0.58544921875,-0.931640625,1.22119140625,69.74811764705882,-16.52439024390244,-90.09146341463415,63.38414634146342,20.864571523279885,-34.5250947380737
0.81689453125,-1.1044921875,0.98193359375,69.76400000000001,-4.115853658536586,-92.53048780487806,67.07317073170732,28.931696877961606,-40.850121014362486
0.958984375,-1.21044921875,0.80029296875,69.77458823529412,8.231707317073171,-90.82317073170732,69.29878048780489,33.45962683612984,-44.10089661577991
0.93896484375,-1.224609375,0.63330078125,69.75341176470589,23.04878048780488,-82.37804878048782,59.75609756097562,34.25738535507723,-47.235946245697114
0.89501953125,-1.0859375,0.58935546875,69.77458823529412,35.57926829268293,-74.1158536585366,36.3719512195122,35.91903458840889,-45.37982862467279,66.344,740.1916223492179,46.4345703125
0.90673828125,-1.005859375,0.48486328125,69.74811764705882,43.993902439024396,-60.82317073170732,16.158536585365855,39.077864140725325,-44.36976212834394
0.83740234375,-0.89306640625,0.4638671875,69.7904705882353,47.804878048780495,-43.47560975609756,-0.12195121951219513,39.76446391752914,-43.011955669885864
0.54052734375,-0.79443359375,0.4931640625,69.7904705882353,42.59146341463415,-25.243902439024392,-18.871951219512198,30.030814151762375,-47.354002442967264
0.3154296875,-0.77392578125,0.45263671875,69.74811764705882,32.13414634146342,-12.621951219512196,-32.43902439024391,19.38276508634977,-54.51635163124229
0.171875,-0.73974609375,0.40625,69.81694117647058,21.585365853658537,-1.9207317073170733,-48.50609756097561,11.511083107406906,-59.1922776958549,66.344,740.1916223492179,46.45703125
0.11669921875,-0.705078125,0.31396484375,69.73752941176471,21.52439024390244,3.689024390243903,-61.06707317073171,8.597977121766304,-64.58965804920558
0.107421875,-0.5751953125,0.22998046875,69.77458823529412,28.84146341463415,9.146341463414634,-70.70121951219512,9.837821334710872,-66.18830751982928
0.0859375,-0.37255859375,0.19775390625,69.76400000000001,43.963414634146346,16.3109756097561,-72.6219512195122,11.51609865706467,-59.939722887352524
0.0732421875,-0.25732421875,0.11474609375,69.73752941176471,52.743902439024396,22.04268292682927,-64.9390243902439,14.571832137845098,-62.120391977424816
0.05078125,-0.087890625,0.05859375,69.77458823529412,53.38414634146342,28.10975609756098,-48.38414634146342,25.67546321497188,-48.58135733813588,66.344,740.1916223492179,46.4677734375
0.02294921875,0.06494140625,0.04150390625,69.82223529411766,48.41463414634147,34.69512195121951,-32.713414634146346,16.581778925784526,53.85965877565102
-0.0439453125,0.17236328125,-0.01025390625,69.81694117647058,41.3109756097561,44.48170731707317,-20.457317073170735,-14.279055821275252,75.32890045236581
-0.1953125,0.291015625,-0.00244140625,69.68458823529411,31.79878048780488,54.11585365853659,-14.664634146341465,-33.8662462006388,56.130749786487975
-0.3564453125,0.40576171875,0.0244140625,69.79576470588236,21.3109756097561,60.09146341463415,-19.939024390243905,-41.246677195987715,48.63550589652739
-0.59521484375,0.466796875,0.11376953125,69.81694117647058,3.2012195121951224,59.69512195121952,-32.5609756097561,-51.08931931417006,37.60721258410773,66.344,740.1916223492179,46.4794921875
-0.744140625,0.3681640625,0.146484375,69.78517647058824,-16.493902439024392,63.17073170731708,-50.518292682926834,-61.96587077794681,25.8935466857658
-0.84130859375,0.1923828125,0.18408203125,69.79576470588236,-40.213414634146346,68.17073170731707,-81.18902439024392,-72.43795449162339,12.59233867388521
-0.89404296875,0.1298828125,0.24072265625,69.75341176470589,-51.34146341463415,69.1158536585366,-98.38414634146342,-72.98883629809777,7.985336764280045
-0.86474609375,0.0791015625,0.29833984375,69.81164705882352,-48.84146341463415,67.92682926829269,-99.72560975609757,-70.35732256872413,4.9421945304523165
-0.84716796875,0.13623046875,0.30078125,69.80635294117647,-32.13414634146342,69.81707317073172,-77.65243902439025,-68.70604444506044,8.616991197072254,66.344,740.4726211210289,46.45703125
-0.8583984375,0.17431640625,0.38525390625,69.74811764705882,-15.853658536585368,68.01829268292684,-41.61585365853659,-63.77468953889435,10.496073000239678
-0.978515625,0.18212890625,0.4794921875,69.73752941176471,-7.652439024390245,58.963414634146346,0.9451219512195123,-62.33743809219045,9.488684424490065
-0.94775390625,0.12646484375,0.5322265625,69.75341176470589,-12.134146341463415,51.40243902439025,21.00609756097561,-60.006382337468175,6.63631366096337
-0.8564453125,0.08837890625,0.5947265625,69.80635294117647,-23.231707317073173,45.518292682926834,17.28658536585366,-54.929673461906,4.844846940104978
-0.69580078125,0.04638671875,0.66943359375,69.7904705882353,-37.13414634146342,45.1219512195122,-10.365853658536587,-46.03787025242375,2.7504851174441,66.344,740.4726211210289,46.4130859375
-0.57177734375,0.0546875,0.7490234375,69.76400000000001,-43.993902439024396,49.84756097560976,-38.62804878048781,-37.28336817050168,3.3214353553101765
-0.55419921875,0.05078125,0.89404296875,69.80105882352942,-44.08536585365854,54.085365853658544,-56.737804878048784,-31.752633171585785,2.7639052203758654
-0.62744140625,0.06884765625,1.1142578125,69.82752941176471,-35.0609756097561,55.396341463414636,-57.65243902439025,-29.337324259823053,3.0817698079738065
-0.7373046875,0.12109375,1.28369140625,69.78517647058824,-22.865853658536587,54.51219512195122,-44.81707317073171,-29.761970332281145,4.676377553334241
-1.00732421875,0.25927734375,1.55859375,69.76400000000001,-7.591463414634147,54.51219512195122,-17.012195121951223,-32.51922024163588,7.953508014283495,66.344,740.4726211210289,46.4345703125
-1.34765625,0.3798828125,1.810546875,69.75341176470589,-1.25,43.35365853658537,12.134146341463415,-36.07238145575355,9.553893571285547
-1.68212890625,0.37255859375,1.99658203125,69.76400000000001,-3.5670731707317076,31.158536585365855,36.34146341463415,-39.63185995798102,8.12144629509727
-1.8984375,0.31982421875,2.1142578125,69.73223529411764,-19.512195121951223,17.103658536585368,55.88414634146342,-41.59934399558581,6.421871037935037
-1.90283203125,0.31884765625,2.13134765625,69.72694117647059,-35.0609756097561,1.981707317073171,63.14024390243903,-41.44314932828299,6.367615064828007
-1.89404296875,0.29296875,2.10205078125,69.81694117647058,-42.25609756097561,-17.28658536585366,61.3719512195122,-41.74634291267026,5.911407098950892,66.344,740.4726211210289,46.4462890625
-1.80419921875,0.2470703125,1.95556640625,69.78517647058824,-38.993902439024396,-41.18902439024391,51.920731707317074,-42.46850257264306,5.3052042883604
-1.6162109375,0.23193359375,1.7861328125,69.72694117647059,-31.158536585365855,-62.28658536585366,48.44512195121952,-41.90265792567126,5.499781296888441
-1.27490234375,0.1865234375,1.54443359375,69.74282352941177,-22.439024390243905,-78.8109756097561,54.146341463414636,-39.33554649323525,5.321052113690781
-1.00634765625,0.1220703125,1.3134765625,69.77988235294119,-17.28658536585366,-85.45731707317074,64.26829268292684,-37.33941173547676,4.219232055344333
-0.8818359375,0.14404296875,1.1123046875,69.81694117647058,-11.646341463414634,-94.84756097560977,84.66463414634147,-38.17568544480384,5.79440063186605,66.344,740.4726211210289,46.4345703125
-0.826171875,0.15234375,0.98828125,69.82752941176471,-4.75609756097561,-102.40853658536587,104.78658536585367,-39.563847706711144,6.744928870452846
-0.72216796875,0.12548828125,0.85009765625,69.80105882352942,3.414634146341464,-107.28658536585367,113.65853658536587,-40.04385050281311,6.418887003716706
-0.60302734375,0.1396484375,0.71240234375,69.76400000000001,10.914634146341465,-107.92682926829269,108.81097560975611,-39.71509910365527,8.509426671755312
-0.48486328125,0.1689453125,0.63818359375,69.82752941176471,13.810975609756099,-104.69512195121952,102.28658536585367,-36.295614831991024,11.903211424221361
-0.3984375,0.1875,0.56201171875,69.77988235294119,11.55487804878049,-101.70731707317074,100.15243902439025,-33.92120177305491,15.225153364018896,66.344,740.4726211210289,46.423828125
-0.28125,0.1748046875,0.49072265625,69.77988235294119,8.140243902439025,-94.60365853658537,102.22560975609757,-28.364718390485447,17.174144560899276
-0.14013671875,0.19873046875,0.4521484375,69.80105882352942,8.323170731707318,-88.26219512195122,104.08536585365854,-15.840655947265496,22.773787525178967
-0.10302734375,0.2578125,0.4638671875,69.76929411764706,15.060975609756099,-80.15243902439025,97.37804878048782,-10.986491818903428,28.48283802973154
-0.06884765625,0.3701171875,0.4755859375,69.75870588235294,25.64024390243903,-70.42682926829269,92.6829268292683,-6.517465477862081,37.60366200940559
-0.0380859375,0.45068359375,0.49072265625,69.76400000000001,36.25,-58.78048780487806,95.91463414634147,-3.271601552920948,42.478912679102926,66.344,740.4726211210289,46.4013671875
-0.0078125,0.37939453125,0.5,69.83811764705882,37.28658536585366,-52.46951219512196,103.68902439024392,-0.7131404633765883,37.18746163879841
0.00830078125,0.17724609375,0.48046875,69.77458823529412,27.408536585365855,-44.66463414634147,109.0548780487805,0.9286076296901752,20.24636479239036
-0.0439453125,0.076171875,0.4765625,69.77458823529412,15.731707317073171,-37.896341463414636,101.34146341463415,-5.2028511682847896,9.043388659408022
-0.1328125,0.09130859375,0.5205078125,69.83811764705882,8.689024390243903,-33.75,80.97560975609757,-14.107501043358276,9.64671555954893
-0.1845703125,0.0771484375,0.5537109375,69.71635294117647,8.567073170731708,-33.71951219512196,61.676829268292686,-18.270341600485946,7.5296988171963015,66.344,740.4726211210289,46.4130859375
-0.15625,-0.0888671875,0.5224609375,69.83811764705882,7.713414634146342,-38.26219512195122,41.463414634146346,-16.427142570253697,-9.255665218373235
-0.05419921875,-0.18115234375,0.43603515625,69.69517647058825,2.713414634146342,-33.78048780487805,23.902439024390247,-6.548204713418288,-22.405411738995767
0.01953125,-0.15380859375,0.4033203125,69.71105882352941,-3.7195121951219514,-22.80487804878049,15.396341463414636,2.5907274946204457,-20.852315470859818
0.03466796875,-0.078125,0.41162109375,69.74811764705882,-9.359756097560977,-5.091463414634147,24.725609756097562,4.730209380347124,-10.709778676877717
0.00439453125,-0.1298828125,0.37255859375,69.72694117647059,-11.55487804878049,21.06707317073171,52.926829268292686,0.6381393635353533,-19.21853454542294,66.344,740.4726211210289,46.4130859375
-0.0859375,-0.16748046875,0.4208984375,69.76929411764706,-15.27439024390244,44.69512195121952,72.77439024390245,-10.741888521840703,-21.29923833422276
-0.2724609375,-0.33984375,0.5947265625,69.86458823529412,-30.030487804878053,67.71341463414635,87.95731707317074,-21.691008619916836,-27.452147154245417
-0.578125,-0.66259765625,0.6650390625,69.77988235294119,-56.92073170731708,88.71951219512196,92.89634146341464,-31.625767279498376,-36.940617999677684
-1.015625,-1.18212890625,0.89990234375,69.82752941176471,-97.25609756097562,96.58536585365854,95.76219512195122,-34.35683563265494,-41.06123832862844
-1.4814453125,-1.6259765625,1.04052734375,69.80635294117647,-128.109756097561,83.9939024390244,113.10975609756099,-37.50348960401849,-41.92873970977436,66.344,740.4726211210289,46.390625
-1.91845703125,-2.037109375,1.154296875,69.75870588235294,-149.84756097560978,51.00609756097561,140.03048780487805,-39.329771169400864,-42.297555278538894
-1.96923828125,-2.24609375,1.134765625,69.75341176470589,-143.2926829268293,23.201219512195124,142.31707317073173,-38.04457981508946,-44.661467105372175
-1.7890625,-2.30712890625,1.00244140625,69.77988235294119,-110.21341463414635,-1.0365853658536586,118.04878048780489,-35.42104247524048,-48.366698557701504
-1.3623046875,-2.1875,0.81640625,69.76400000000001,-48.201219512195124,-21.371951219512198,63.35365853658537,-30.261746555646575,-54.018988462157054
-1.0166015625,-1.9619140625,0.63623046875,69.74811764705882,7.164634146341464,-27.5609756097561,23.84146341463415,-26.238610411097298,-58.563405076977695,66.344,740.4726211210289,46.390625
-0.65380859375,-1.60009765625,0.5146484375,69.72694117647059,63.10975609756098,-24.573170731707318,12.042682926829269,-21.25506818857516,-62.525226422583835
-0.5107421875,-1.25927734375,0.46142578125,69.79576470588236,94.96951219512196,-21.73780487804878,28.231707317073173,-20.847985048030043,-61.339351807577685
-0.537109375,-0.953125,0.49072265625,69.70576470588236,112.53048780487806,-24.573170731707318,62.50000000000001,-26.611747521317373,-52.6452605636211
-0.68701171875,-0.67041015625,0.5341796875,69.77458823529412,113.17073170731709,-33.018292682926834,106.73780487804879,-38.710675773166365,-37.60943529233403
-0.76708984375,-0.47509765625,0.57666015625,69.75870588235294,98.75000000000001,-47.713414634146346,126.37195121951221,-45.753885892435804,-26.338369356285632,66.344,740.4726211210289,46.3681640625
-0.7060546875,-0.34375,0.63232421875,69.71635294117647,68.10975609756098,-64.20731707317074,112.71341463414635,-44.45083596037327,-19.934568912263412
-0.56396484375,-0.3251953125,0.5830078125,69.74811764705882,35.33536585365854,-71.58536585365854,78.62804878048782,-40.19119671314865,-21.846318869756377
-0.3837890625,-0.28076171875,0.587890625,69.73752941176471,-5.182926829268293,-71.34146341463415,33.07926829268293,-30.501999732238307,-21.796603029507192
-0.20849609375,-0.1826171875,0.61083984375,69.75341176470589,-27.134146341463417,-62.50000000000001,8.506097560975611,-18.109054144375953,-15.7979771879698
-0.0234375,-0.10888671875,0.59375,69.75870588235294,-36.25,-49.69512195121952,7.896341463414635,-2.223460403310851,-10.383986109046342,66.344,740.4726211210289,46.3681640625
0.10888671875,-0.0224609375,0.60107421875,69.7904705882353,-36.4329268292683,-38.170731707317074,36.03658536585366,10.260969999681329,-2.1057906764796273
0.11376953125,0.02099609375,0.625,69.74282352941177,-31.189024390243905,-26.250000000000004,69.23780487804879,10.31097162220663,1.8929731053674452
0.12939453125,0.08544921875,0.59375,69.83811764705882,-25.000000000000004,-15.457317073170733,94.93902439024392,12.17249997533512,8.004119190185575
0.12890625,0.2734375,0.6796875,69.75870588235294,-19.573170731707318,-5.121951219512195,109.32926829268294,9.979083025322394,21.56656809522545
0.08154296875,0.2392578125,0.75537109375,69.77458823529412,-20.54878048780488,-1.9512195121951221,116.40243902439025,5.8757322758487,17.47986622087306,66.344,740.4726211210289,46.3681640625
0.0419921875,0.09423828125,0.71875,69.77988235294119,-32.04268292682927,2.8963414634146343,110.88414634146342,3.3153314977798565,7.457104703468079
0.029296875,0.01025390625,0.7841796875,69.76400000000001,-52.46951219512196,8.323170731707318,91.76829268292684,2.139386821955201,0.7486327050305396
-0.021484375,-0.0673828125,0.822265625,69.75870588235294,-77.13414634146342,8.719512195121952,59.81707317073171,-1.4917007831018325,-4.683200561241098
-0.0166015625,-0.07080078125,0.8544921875,69.7904705882353,-90.48780487804879,10.975609756097562,28.963414634146343,-1.109234961940249,-4.7356554514706515
0.08056640625,0.0419921875,0.93017578125,69.77458823529412,-92.46951219512196,15.396341463414636,3.7195121951219514,4.945260561539175,2.575197621610287,66.344,740.4726211210289,46.357421875
0.19189453125,0.15185546875,0.98974609375,69.74811764705882,-87.01219512195122,20.30487804878049,4.0548780487804885,10.848634563494672,8.565718123877142
0.26416015625,0.1669921875,1.03076171875,69.80105882352942,-83.35365853658537,27.77439024390244,19.115853658536587,14.196732382774822,8.919070812915397
0.193359375,0.12060546875,1.052734375,69.80105882352942,-89.20731707317074,34.63414634146342,36.676829268292686,10.34154023429719,6.4289202259611455
0.0478515625,0.099609375,1.11767578125,69.77988235294119,-100.94512195121952,41.737804878048784,60.304878048780495,2.4418666115560685,5.088216066511066
-0.1025390625,0.04296875,1.17236328125,69.74282352941177,-108.32317073170732,43.68902439024391,80.42682926829269,-4.995235418496554,2.091054916467448,66.344,740.4726211210289,46.357421875
-0.3232421875,-0.03955078125,1.20947265625,69.76929411764706,-105.97560975609757,34.268292682926834,102.50000000000001,-14.955450149423344,-1.8094887132914417
-0.46630859375,-0.138671875,1.2001953125,69.83811764705882,-97.28658536585367,22.865853658536587,112.43902439024392,-21.104572100070598,-6.1469473264193075
-0.5146484375,-0.185546875,1.16552734375,69.71105882352941,-78.8109756097561,8.323170731707318,115.76219512195122,-23.56044323772068,-8.285758288937531
-0.515625,-0.1103515625,1.162109375,69.77458823529412,-47.31707317073171,-12.926829268292684,110.85365853658537,-23.831550594965286,-4.96071176617439
-0.54541015625,-0.041015625,1.1318359375,69.74282352941177,-18.01829268292683,-29.08536585365854,100.57926829268294,-25.713830881084945,-1.8697866237926688,66.344,740.4726211210289,46.4013671875
-0.4560546875,0.091796875,1.0791015625,69.82752941176471,9.878048780487806,-38.65853658536586,94.60365853658537,-22.836130469675513,4.480396022432413
-0.23291015625,0.1962890625,1.03515625,69.74282352941177,22.439024390243905,-43.59756097560976,105.70121951219514,-12.465378199972069,10.481090671174725
0.01904296875,0.22900390625,0.953125,69.76400000000001,24.75609756097561,-40.03048780487805,120.1829268292683,1.1129247826328006,13.507567443618145
0.29443359375,0.20703125,0.87353515625,69.74282352941177,14.908536585365855,-23.658536585365855,138.47560975609758,18.158163654571904,12.657984778112295
0.48388671875,0.09033203125,0.86328125,69.83811764705882,-0.5792682926829269,-1.2195121951219514,152.77439024390245,29.13864966890207,5.21533715708912,66.344,740.4726211210289,46.4130859375
0.5556640625,-0.07421875,0.83056640625,69.74811764705882,-23.323170731707318,25.823170731707318,162.28658536585368,33.678022003345276,-4.247595703822582
0.4033203125,-0.21044921875,0.92626953125,69.73752941176471,-40.60975609756098,39.93902439024391,167.95731707317074,23.00623201256076,-11.767017397454199
0.18310546875,-0.3955078125,0.9951171875,69.72694117647059,-51.463414634146346,49.75609756097561,174.0548780487805,9.703354447477816,-21.349850202643566
-0.099609375,-0.6298828125,1.02880859375,69.75341176470589,-54.146341463414636,44.024390243902445,181.06707317073173,-4.720385115082003,-31.357932672821523
-0.32861328125,-0.82958984375,1.08203125,69.77458823529412,-47.926829268292686,27.378048780487806,176.5548780487805,-13.55071053455437,-36.26417940948027,66.344,740.4726211210289,46.4677734375
-0.4384765625,-0.95654296875,1.02734375,69.76400000000001,-31.00609756097561,4.481707317073171,149.87804878048783,-17.347193772873766,-40.575008048044104
-0.38427734375,-0.92724609375,0.9853515625,69.76929411764706,-9.847560975609756,-21.06707317073171,118.23170731707319,-15.855152877609425,-41.241644278206394
-0.13427734375,-0.7099609375,0.81494140625,69.77458823529412,18.75,-42.16463414634147,80.60975609756099,-7.0819361185268255,-40.682024882090126
0.2021484375,-0.412109375,0.734375,69.74282352941177,33.23170731707317,-44.32926829268293,67.5,13.4985153437515,-28.41545081341857
0.75146484375,-0.09375,0.7841796875,69.75341176470589,37.59146341463415,-36.951219512195124,92.37804878048782,43.576514573867115,-4.933379840476857,66.344,740.4726211210289,46.5234375
1.1025390625,0.005859375,0.8017578125,69.69517647058825,32.80487804878049,-24.23780487804878,121.09756097560977,53.97491647527424,0.2462638822298737
1.17626953125,-0.04150390625,0.92724609375,69.76929411764706,18.597560975609756,-9.908536585365855,137.19512195121953,51.72362310274747,-1.587258204482351
0.98486328125,-0.208984375,0.96240234375,69.73752941176471,-7.8048780487804885,10.76219512195122,132.83536585365854,45.000929541669244,-8.629702383627588
0.53662109375,-0.51171875,0.95849609375,69.76929411764706,-51.524390243902445,25.152439024390247,115.54878048780489,26.283859278576244,-24.977938616056875
0.1611328125,-0.662109375,0.998046875,69.76929411764706,-79.57317073170732,22.98780487804878,101.25000000000001,7.662289007614364,-33.2217726480333,66.344,740.4726211210289,46.58984375
-0.130859375,-0.74755859375,0.98974609375,69.79576470588236,-89.69512195121952,12.835365853658537,81.4939024390244,-6.0225912398841555,-36.82539365630881
-0.2021484375,-0.72412109375,0.9580078125,69.78517647058824,-78.26219512195122,-3.3841463414634148,60.396341463414636,-9.555166130852621,-36.48573704296334
-0.044921875,-0.5869140625,1.0390625,69.81164705882352,-51.493902439024396,-12.042682926829269,28.56707317073171,-2.155769692866845,-29.437014223084308
0.22021484375,-0.30224609375,1.22119140625,69.7904705882353,-29.634146341463417,1.5853658536585367,9.573170731707318,9.928812351151729,-13.689112671127647
0.43115234375,-0.1533203125,1.2998046875,69.73223529411764,-15.03048780487805,15.914634146341465,15.54878048780488,18.233002602449535,-6.388109866671605,66.344,740.4726211210289,46.634765625
0.626953125,-0.12646484375,1.26953125,69.77458823529412,-18.01829268292683,23.262195121951223,25.731707317073173,26.170146384012973,-5.103971008669453
0.6533203125,-0.1787109375,1.25927734375,69.80635294117647,-38.32317073170732,17.652439024390244,34.51219512195122,27.187705999478837,-7.1798057771323265
0.3212890625,-0.22607421875,1.27490234375,69.66341176470588,-79.63414634146342,12.469512195121952,46.09756097560976,13.935875444965232,-9.756626790317238
0.00341796875,-0.31640625,1.19384765625,69.69517647058825,-112.65243902439025,14.237804878048781,56.707317073170735,0.15856227035595605,-14.843811111071924
-0.2646484375,-0.47216796875,1.201171875,69.79576470588236,-132.46951219512195,1.128048780487805,61.18902439024391,-11.58797428099538,-21.000917208465157,66.344,740.4726211210289,46.6455078125
-0.47509765625,-0.48388671875,1.1728515625,69.76929411764706,-129.0548780487805,-13.597560975609758,51.00609756097561,-20.5289724164527,-20.926399009748888
-0.53466796875,-0.451171875,1.16162109375,69.80105882352942,-109.23780487804879,-22.500000000000004,23.384146341463417,-23.221836446025215,-19.43381722414571
-0.44384765625,-0.33740234375,1.21630859375,69.74811764705882,-88.68902439024392,-19.23780487804878,-7.408536585365854,-19.373470880856974,-14.605894105128604
-0.34423828125,-0.158203125,1.2763671875,69.81694117647058,-66.79878048780489,-6.890243902439025,-33.140243902439025,-14.984189119769104,-6.824244146722907
-0.275390625,0.0,1.23779296875,69.85929411764707,-44.63414634146342,4.329268292682928,-40.97560975609756,-12.543165754086665,0.0,66.344,740.4726211210289,46.701171875
-0.3583984375,0.060546875,1.20654296875,69.77988235294119,-37.957317073170735,3.8719512195121957,-34.51219512195122,-16.52417033184341,2.754072289607729
-0.474609375,0.07177734375,1.10009765625,69.77988235294119,-42.5609756097561,-3.3231707317073176,-19.207317073170735,-23.292331431693576,3.428422648800625
-0.56103515625,0.08154296875,1.0947265625,69.76400000000001,-51.920731707317074,-14.390243902439027,-2.4695121951219514,-27.070349403584256,3.7925208397934504
-0.59716796875,0.0732421875,1.0380859375,69.76929411764706,-60.15243902439025,-23.963414634146343,9.085365853658537,-29.8485919379925,3.499722836345864
-0.59228515625,0.04248046875,0.95458984375,69.84870588235295,-70.27439024390245,-32.01219512195122,6.737804878048781,-31.792576100653744,2.1655484477040097,66.344,740.4726211210289,46.7119140625
-0.4892578125,0.06103515625,0.900390625,69.77458823529412,-78.65853658536587,-34.390243902439025,-15.396341463414636,-28.46388236864534,3.408626698422379
-0.31103515625,0.05615234375,0.82666015625,69.71635294117647,-86.67682926829269,-24.451219512195124,-45.518292682926834,-20.575639766636286,3.6377138662468345
-0.12109375,0.0068359375,0.73291015625,69.71635294117647,-100.27439024390245,-6.219512195121951,-78.17073170731707,-9.381432463226172,0.5272412095844641
0.07373046875,-0.1435546875,0.67431640625,69.74282352941177,-116.4939024390244,19.939024390243905,-108.41463414634147,6.104264599238076,-11.949082830428079
0.07275390625,-0.298828125,0.63525390625,69.73752941176471,-127.28658536585367,34.96951219512196,-117.34756097560977,5.916649656536054,-25.049146059709688,66.362,740.1916223492179,46.7451171875
-0.0908203125,-0.4716796875,0.70068359375,69.74282352941177,-127.83536585365854,44.176829268292686,-98.04878048780489,-6.137079933169314,-33.7265265534441
-0.248046875,-0.62109375,0.70703125,69.73752941176471,-115.91463414634147,47.04268292682927,-63.07926829268293,-14.765856651048843,-39.65604268928973
-0.3203125,-0.6943359375,0.7607421875,69.75870588235294,-92.37804878048782,48.201219512195124,-27.926829268292686,-17.275334000848616,-40.0700277983005
-0.41064453125,-0.654296875,0.81787109375,69.79576470588236,-56.18902439024391,48.993902439024396,-4.207317073170732,-21.408460713218005,-35.56261408106332
-0.48828125,-0.53369140625,0.8955078125,69.79576470588236,-2.5914634146341466,47.5609756097561,4.847560975609756,-25.097691684684406,-27.620306651502016,66.362,740.1916223492179,46.7568359375
-0.53955078125,-0.40771484375,0.953125,69.82752941176471,41.85975609756098,43.75000000000001,1.3109756097560976,-27.495479566330815,-20.41823176228148
-0.53857421875,-0.189453125,0.9951171875,69.76400000000001,79.96951219512196,39.63414634146342,-6.402439024390245,-27.99812004492538,-9.505067532059932
-0.47607421875,-0.09423828125,1.1328125,69.72694117647059,95.45731707317074,37.07317073170732,-5.213414634146342,-22.724516621236265,-4.385559809463992
-0.44921875,0.0751953125,1.208984375,69.76400000000001,94.1158536585366,42.43902439024391,1.8597560975609757,-20.34732016547649,3.336709365090447
-0.53857421875,0.15576171875,1.2578125,69.85400000000001,77.53048780487805,42.46951219512196,17.896341463414636,-23.02245275016747,6.494518110254499,66.362,740.1916223492179,46.7783203125
-0.78515625,0.27001953125,1.427734375,69.73752941176471,48.8719512195122,29.451219512195124,47.19512195121952,-28.3846948653116,9.409465917683246
-1.017578125,0.31884765625,1.5361328125,69.77988235294119,23.231707317073173,12.74390243902439,71.03658536585367,-32.967595942763495,9.81737977916891
-1.21337890625,0.28955078125,1.59619140625,69.77458823529412,0.15243902439024393,-4.359756097560976,81.58536585365854,-36.79518532405861,8.217429356155046
-1.3212890625,0.23095703125,1.65771484375,69.77988235294119,-18.140243902439025,-19.146341463414636,74.78658536585367,-38.288607062453416,6.217792989157154
-1.35107421875,0.0859375,1.62158203125,69.79576470588236,-34.75609756097561,-33.75,52.65243902439025,-39.76097104997719,2.3315519651015815,66.362,739.9106259006205,46.779296875
-1.28662109375,-0.08837890625,1.55810546875,69.75341176470589,-46.98170731707317,-43.8109756097561,32.6219512195122,-39.503355496603696,-2.504380210829281
-1.14501953125,-0.2060546875,1.470703125,69.79576470588236,-55.15243902439025,-52.07317073170732,12.74390243902439,-37.63300474722863,-6.30852630826028
-0.97900390625,-0.251953125,1.36376953125,69.75870588235294,-54.78658536585366,-56.524390243902445,-0.6707317073170732,-35.219034833429696,-8.53528875928012
-0.88232421875,-0.220703125,1.31689453125,69.75341176470589,-44.90853658536586,-60.304878048780495,5.884146341463415,-33.456249005272845,-7.9264211117384455
-0.853515625,-0.11767578125,1.27294921875,69.80635294117647,-25.670731707317074,-64.42073170731707,31.09756097560976,-33.72928253368902,-4.390634020489334,66.362,739.9106259006205,46.7685546875
-0.841796875,-0.03662109375,1.2646484375,69.85929411764707,-7.652439024390245,-72.28658536585367,61.554878048780495,-33.638132540985836,-1.3808799610446731
-0.8427734375,-0.00634765625,1.25732421875,69.80105882352942,7.5304878048780495,-81.03658536585367,89.66463414634147,-33.833263735841925,-0.24027495318688932
-0.85546875,-0.0322265625,1.23876953125,69.77988235294119,19.603658536585368,-88.75000000000001,112.65243902439025,-34.619098092070665,-1.2263212101301448
-0.8671875,-0.08544921875,1.20751953125,69.79576470588236,23.78048780487805,-93.41463414634147,121.6158536585366,-35.616475060605524,-3.289617951118102
-0.89306640625,-0.10546875,1.21923828125,69.79576470588236,23.902439024390247,-96.67682926829269,122.92682926829269,-36.120237890811794,-3.991943982185022,66.362,739.9106259006205,46.8017578125
-0.86474609375,-0.16552734375,1.18212890625,69.76400000000001,23.750000000000004,-96.79878048780489,118.04878048780489,-35.921385923954794,-6.447898410462736
-0.77685546875,-0.2041015625,1.09912109375,69.77458823529412,23.59756097560976,-94.20731707317074,110.60975609756099,-34.79610159836635,-8.622734725164827
-0.5927734375,-0.2021484375,1.02392578125,69.74811764705882,24.32926829268293,-94.72560975609757,108.10975609756099,-29.594820971382834,-9.695848172306707
-0.45263671875,-0.2646484375,0.9091796875,69.76400000000001,26.920731707317074,-91.09756097560977,105.00000000000001,-25.548377438029213,-14.605217682417837
-0.3369140625,-0.27294921875,0.818359375,69.74282352941177,30.487804878048784,-86.25000000000001,98.26219512195122,-21.332852403056577,-17.140681280312762,66.362,739.9106259006205,46.791015625
-0.275390625,-0.23779296875,0.783203125,69.76929411764706,36.4329268292683,-81.98170731707317,99.72560975609757,-18.59577492958232,-15.983057556981693
-0.21533203125,-0.28759765625,0.70947265625,69.77988235294119,43.9329268292683,-81.21951219512196,111.15853658536587,-15.710138273500519,-21.20105320880869
-0.2412109375,-0.2685546875,0.6748046875,69.76929411764706,48.44512195121952,-85.67073170731707,124.81707317073172,-18.372269855242482,-20.54358292580718
-0.28759765625,-0.224609375,0.6826171875,69.77458823529412,51.85975609756098,-86.46341463414635,138.14024390243904,-21.811678009534496,-16.868756341061633
-0.26416015625,-0.28173828125,0.6123046875,69.74282352941177,54.51219512195122,-84.1158536585366,145.27439024390245,-21.401279240771338,-22.903430924226154,66.362,739.9106259006205,46.8017578125
-0.22705078125,-0.3486328125,0.5498046875,69.74282352941177,54.176829268292686,-83.01829268292684,140.76219512195124,-19.22674762621478,-30.37426600006361
-0.15283203125,-0.43212890625,0.5107421875,69.74282352941177,51.09756097560976,-79.0548780487805,124.32926829268294,-12.867862226922364,-39.02713128662159
-0.0732421875,-0.47900390625,0.47119140625,69.71635294117647,48.71951219512196,-72.37804878048782,103.41463414634147,-6.220997692286498,-45.1291194724921
0.0263671875,-0.48828125,0.44873046875,69.74811764705882,47.46951219512196,-57.53048780487806,80.48780487804879,2.276885463234507,-47.367791799137976
0.140625,-0.5224609375,0.41650390625,69.76929411764706,48.84146341463415,-41.493902439024396,69.69512195121952,11.885311168664611,-49.922455816510706,66.362,739.9106259006205,46.8125
0.25732421875,-0.580078125,0.357421875,69.73752941176471,53.10975609756098,-27.25609756097561,70.42682926829269,20.689890242421637,-52.79294297570304
0.25634765625,-0.59912109375,0.3603515625,69.80105882352942,59.63414634146342,-19.451219512195124,82.04268292682927,20.135988659490035,-53.567806581861674
0.1796875,-0.546875,0.3642578125,69.69517647058825,73.07926829268294,-11.981707317073171,99.90853658536587,15.294350163155473,-53.39855248435978
0.1005859375,-0.48583984375,0.39208984375,69.71105882352941,87.77439024390245,-7.286585365853659,111.34146341463416,9.152440501859774,-50.200011343843826
0.00146484375,-0.4677734375,0.38720703125,69.76400000000001,105.03048780487806,-3.7195121951219514,117.46951219512196,0.13821405749457752,-50.38299085429388,66.362,739.9106259006205,46.8017578125
-0.03662109375,-0.41943359375,0.3837890625,69.80635294117647,112.56097560975611,-2.774390243902439,111.4939024390244,-3.6855830179680464,-47.411598174574486
-0.05419921875,-0.34814453125,0.41796875,69.76929411764706,111.73780487804879,-1.0060975609756098,99.39024390243904,-5.689974878706125,-39.55766084071081
-0.04052734375,-0.2998046875,0.42041015625,69.72694117647059,101.98170731707317,2.6524390243902443,80.82317073170732,-4.487752111451112,-35.3684166529662
0.0498046875,-0.25146484375,0.43505859375,69.74811764705882,83.23170731707317,7.469512195121952,61.15853658536586,5.660268430125245,-29.866667578341733
0.20166015625,-0.17919921875,0.498046875,69.80105882352942,52.34756097560976,17.957317073170735,48.04878048780488,20.856388307900904,-18.443689781607112,66.362,740.1916223492179,46.779296875
0.31103515625,-0.16015625,0.5263671875,69.82223529411766,23.59756097560976,30.27439024390244,45.54878048780488,29.48034413599507,-14.678908271883456
0.45361328125,-0.18212890625,0.611328125,69.74811764705882,-8.719512195121952,47.86585365853659,45.457317073170735,35.41756495274224,-13.455245744892267
0.47509765625,-0.28759765625,0.64990234375,69.79576470588236,-30.792682926829272,61.25000000000001,45.243902439024396,33.7626690263552,-19.659066122503997
0.3994140625,-0.42724609375,0.65966796875,69.73223529411764,-48.78048780487805,69.08536585365854,48.41463414634147,26.93965176243526,-28.987670226250113
0.19775390625,-0.60791015625,0.6865234375,69.80635294117647,-63.9329268292683,72.01219512195122,54.11585365853659,12.169781829795214,-40.39423823793421,66.362,740.1916223492179,46.8017578125
0.04833984375,-0.71435546875,0.7216796875,69.73223529411764,-67.7439024390244,69.93902439024392,57.28658536585366,2.725488831965082,-44.64365795871773
-0.03955078125,-0.77490234375,0.75244140625,69.83811764705882,-61.79878048780488,63.10975609756098,56.463414634146346,-2.097079800475542,-45.803019543017065
-0.04833984375,-0.76904296875,0.7705078125,69.7904705882353,-44.35975609756098,57.19512195121952,45.88414634146342,-2.54251463189486,-44.88921621843749
0.0048828125,-0.66357421875,0.73681640625,69.76400000000001,-26.951219512195124,53.23170731707317,26.76829268292683,0.2821381372481185,-42.005461092986216
0.1884765625,-0.4580078125,0.828125,69.81694117647058,-7.439024390243903,54.39024390243903,-2.8963414634146343,11.26383376219987,-28.336891209198384,66.362,740.1916223492179,46.779296875
0.33251953125,-0.328125,0.87353515625,69.85929411764707,0.9756097560975611,57.01219512195122,-23.50609756097561,19.613472071549353,-19.34386507769458
0.40478515625,-0.28955078125,0.96484375,69.76400000000001,-2.5,61.676829268292686,-36.18902439024391,21.891736146526696,-15.468572131355627
0.40673828125,-0.32666015625,1.0146484375,69.81694117647058,-20.30487804878049,67.43902439024392,-43.78048780487805,20.88579055418168,-16.637635220816374
0.2919921875,-0.34521484375,1.09814453125,69.71105882352941,-42.5609756097561,65.3048780487805,-42.13414634146342,14.233307453370786,-16.899080689725796
0.15234375,-0.435546875,1.12158203125,69.77458823529412,-66.76829268292684,60.701219512195124,-37.16463414634147,7.2162403589848525,-21.046681817131137,66.362,739.9106259006205,46.791015625
0.0712890625,-0.5302734375,1.12158203125,69.72694117647059,-78.14024390243902,54.268292682926834,-39.84756097560976,3.288741145370817,-25.2597397608488
0.03662109375,-0.537109375,1.17822265625,69.79576470588236,-78.10975609756099,47.59146341463415,-50.304878048780495,1.6199855652196038,-24.49609893838053
0.09716796875,-0.5166015625,1.2158203125,69.72694117647059,-68.56707317073172,44.207317073170735,-64.72560975609757,4.206827152607345,-22.955043715474705
0.2587890625,-0.4453125,1.28662109375,69.77458823529412,-54.63414634146342,49.32926829268293,-78.62804878048782,10.76215169934269,-18.74281118207639
0.3642578125,-0.32373046875,1.39111328125,69.71635294117647,-36.61585365853659,58.9329268292683,-82.83536585365854,14.307253535589705,-12.687120823377494,66.362,739.9106259006205,46.845703125
0.40380859375,-0.28271484375,1.4814453125,69.72694117647059,-24.29878048780488,70.45731707317074,-82.46951219512196,14.989113999111561,-10.432447977190725
0.39892578125,-0.33984375,1.5087890625,69.76400000000001,-20.426829268292686,86.58536585365854,-89.78658536585367,14.463555028457156,-12.284927859487425
0.33837890625,-0.3759765625,1.583984375,69.73752941176471,-23.384146341463417,91.3109756097561,-97.89634146341464,11.741756399692841,-13.068281990132606
0.0869140625,-0.46826171875,1.79150390625,69.78517647058824,-26.432926829268293,77.6219512195122,-88.75000000000001,2.6873597195012167,-14.631736562185832
-0.2138671875,-0.56787109375,1.83251953125,69.73752941176471,-27.195121951219516,62.50000000000001,-73.41463414634147,-6.360888327585023,-17.10817463104942,66.362,739.9106259006205,46.845703125
-0.49609375,-0.52734375,1.97705078125,69.74282352941177,-19.878048780487806,38.38414634146342,-55.67073170731708,-13.628369362211087,-14.50507486708117
-0.6015625,-0.38232421875,2.0927734375,69.76929411764706,-5.5182926829268295,15.823170731707318,-43.9329268292683,-15.78918252961841,-9.958381033510003
-0.580078125,-0.2861328125,2.16357421875,69.7904705882353,11.615853658536587,-3.810975609756098,-42.04268292682927,-14.884871406939089,-7.2794587358664
-0.5244140625,-0.24853515625,2.125,69.78517647058824,23.170731707317074,-18.140243902439025,-48.993902439024396,-13.772371761627422,-6.478249761099766
-0.43310546875,-0.22705078125,1.98828125,69.77458823529412,23.07926829268293,-27.743902439024392,-67.34756097560977,-12.211761260434413,-6.366615836241569,66.362,739.9106259006205,46.8681640625
-0.3740234375,-0.234375,1.869140625,69.71105882352941,16.615853658536587,-29.78658536585366,-89.90853658536587,-11.23000858587986,-7.009583696053474
-0.34521484375,-0.20556640625,1.73681640625,69.76400000000001,10.121951219512196,-22.98780487804878,-115.91463414634147,-11.165808787898735,-6.621671353672036
-0.30029296875,-0.1748046875,1.6064453125,69.75341176470589,9.02439024390244,-10.945121951219512,-140.2439024390244,-10.527366952321305,-6.105250639787354
-0.2314453125,-0.302734375,1.4521484375,69.76929411764706,11.067073170731708,-21.28048780487805,-141.09756097560978,-8.868175666656565,-11.633228489669813
-0.23681640625,-0.44921875,1.3798828125,69.73752941176471,16.03658536585366,-46.15853658536586,-124.1158536585366,-9.268441940078674,-17.789230832298227,66.362,739.9106259006205,46.8798828125
-0.2431640625,-0.51171875,1.34521484375,69.82223529411766,24.32926829268293,-55.1829268292683,-106.67682926829269,-9.589629822899242,-20.522521700717256
-0.1484375,-0.59375,1.25146484375,69.76929411764706,34.84756097560976,-54.54268292682927,-95.3048780487805,-6.116572653238499,-25.227067902432225
-0.130859375,-0.57470703125,1.12646484375,69.7904705882353,44.84756097560976,-50.88414634146342,-84.45121951219512,-5.90787884910005,-26.87490469962166
-0.11962890625,-0.5009765625,1.08349609375,69.85929411764707,56.25000000000001,-39.72560975609756,-77.01219512195122,-5.722853827392368,-24.682457061761596
-0.07568359375,-0.439453125,0.9775390625,69.74282352941177,76.09756097560977,-19.451219512195124,-73.47560975609757,-4.039247241356953,-24.142357545856637,66.362,739.9106259006205,46.857421875
-0.0732421875,-0.29931640625,0.8955078125,69.78517647058824,94.81707317073172,0.1829268292682927,-71.21951219512195,-4.435560213157446,-18.424449665682637
-0.05615234375,-0.103515625,0.90234375,69.83282352941177,115.82317073170732,21.402439024390247,-63.20121951219513,-3.537748902787502,-6.531758729612857
0.013671875,-0.119140625,0.80078125,69.80105882352942,122.7439024390244,21.06707317073171,-56.92073170731708,0.9674783878788243,-8.461202810619909
-0.04931640625,-0.2578125,0.7802734375,69.80635294117647,115.3658536585366,3.536585365853659,-42.804878048780495,-3.434369881194283,-18.250231602525826
-0.26708984375,-0.322265625,0.7109375,69.7904705882353,92.53048780487806,-2.5609756097560976,-35.82317073170732,-18.889585432192792,-22.993407770577377,66.362,739.6296317752041,46.8359375
-0.34814453125,-0.38818359375,0.69384765625,69.80105882352942,71.03658536585367,2.8963414634146343,-39.451219512195124,-23.648026326722263,-26.5672724871092
-0.38134765625,-0.38330078125,0.66796875,69.81694117647058,56.554878048780495,12.896341463414636,-44.08536585365854,-26.343346032074752,-26.488745055835672
-0.36669921875,-0.25732421875,0.6943359375,69.75341176470589,57.896341463414636,21.52439024390244,-40.274390243902445,-26.3452973142742,-18.144468758835565
-0.3974609375,-0.0986328125,0.66943359375,69.77988235294119,73.17073170731707,30.731707317073173,-16.402439024390244,-30.429372681989605,-7.220353319730659
-0.400390625,0.015625,0.66650390625,69.80635294117647,88.8109756097561,36.859756097560975,10.670731707317074,-30.987662769997637,1.151255308730932,66.362,739.6296317752041,46.8466796875
-0.4248046875,0.21630859375,0.6201171875,69.81694117647058,97.77439024390245,35.91463414634147,29.542682926829272,-32.895515056338056,16.05431389361557
-0.4130859375,0.2978515625,0.64306640625,69.7904705882353,90.1219512195122,28.53658536585366,35.640243902439025,-30.237128504906625,21.290783099084393
-0.564453125,0.1298828125,0.63330078125,69.83282352941177,63.26219512195122,5.274390243902439,33.32317073170732,-41.12468286700792,8.70454495269483
-0.70556640625,-0.037109375,0.607421875,69.80635294117647,30.51829268292683,-2.682926829268293,16.70731707317073,-49.22207374879825,-2.2825519447323352
-0.77099609375,-0.14697265625,0.58447265625,69.72694117647059,-4.939024390243903,3.26219512195122,-18.10975609756098,-51.98614619623244,-8.637805804037058,66.362,739.6296317752041,46.90234375
-0.72802734375,-0.095703125,0.62353515625,69.77458823529412,-17.53048780487805,10.579268292682928,-43.47560975609756,-49.09101681055823,-5.7015992418648604
-0.6611328125,0.01953125,0.6767578125,69.82752941176471,-11.250000000000002,10.30487804878049,-48.04878048780488,-44.31896047527065,1.1826487005811002
-0.5517578125,0.16455078125,0.68896484375,69.75870588235294,14.573170731707318,8.353658536585366,-39.75609756097561,-37.916515463231846,10.560062231543961
-0.486328125,0.2919921875,0.697265625,69.79576470588236,36.951219512195124,14.237804878048781,-34.78658536585366,-32.75503617602537,18.956264922114446
-0.421875,0.509765625,0.6962890625,69.79576470588236,49.11585365853659,20.640243902439025,-22.31707317073171,-26.05291947816317,32.05285331938906,66.362,739.6296317752041,46.9580078125
-0.3310546875,0.57421875,0.75244140625,69.81164705882352,44.72560975609756,16.554878048780488,-3.932926829268293,-19.277835521186656,34.935105802721424
-0.52197265625,0.45849609375,0.7783203125,69.77988235294119,24.207317073170735,7.0426829268292686,10.396341463414634,-30.02074061360095,26.070124264012133
-0.75830078125,0.4609375,0.7939453125,69.77458823529412,-3.963414634146342,2.7439024390243905,4.481707317073171,-39.556444931754875,22.774526771662714
-1.0380859375,0.58447265625,0.9013671875,69.81164705882352,-34.60365853658537,-1.6463414634146343,-12.408536585365855,-44.01844859919534,23.03188385490376
-1.1767578125,0.77490234375,0.99560546875,69.75341176470589,-51.06707317073171,-7.103658536585367,-20.731707317073173,-43.00658597765094,26.68951592350701,66.362,739.9106259006205,46.96875
-1.1650390625,0.951171875,1.0966796875,69.77988235294119,-56.00609756097561,-20.27439024390244,-29.32926829268293,-38.74822959535677,30.730629290760422
-1.1240234375,0.9990234375,1.11376953125,69.86458823529412,-55.03048780487806,-33.44512195121951,-42.31707317073171,-36.916301294907925,32.266029453867326
-0.99267578125,0.9384765625,1.08447265625,69.7904705882353,-58.018292682926834,-45.82317073170732,-62.10365853658537,-34.68960989252768,32.55142786900466
-0.83984375,0.84130859375,1.04736328125,69.79576470588236,-67.5609756097561,-47.896341463414636,-76.46341463414635,-32.011760380108186,32.074256231166316
-0.75341796875,0.68310546875,0.98095703125,69.82223529411766,-82.95731707317074,-47.50000000000001,-79.93902439024392,-32.22241343461447,28.910699020632524,66.362,739.9106259006205,46.9912109375
-0.7236328125,0.6181640625,0.962890625,69.83811764705882,-92.04268292682927,-49.75609756097561,-64.84756097560977,-32.309812771850744,27.16758663333697
-0.693359375,0.62890625,1.001953125,69.79576470588236,-88.44512195121952,-58.8719512195122,-32.6829268292683,-30.37517722058029,27.300352654983598
-0.72998046875,0.5771484375,1.02001953125,69.81164705882352,-65.21341463414635,-72.8048780487805,12.225609756097562,-31.917134224378696,24.708559483054373
-0.75732421875,0.50634765625,0.9658203125,69.73752941176471,-34.54268292682927,-81.06707317073172,43.10975609756098,-34.77891100150855,22.4190343771648
-0.701171875,0.48388671875,0.921875,69.85929411764707,0.09146341463414635,-86.3109756097561,65.33536585365854,-33.95857156568329,22.67426424531476,66.362,739.9106259006205,47.013671875
-0.654296875,0.46533203125,0.904296875,69.77458823529412,20.640243902439025,-88.41463414634147,73.65853658536587,-32.755626904246554,22.631110719368916
-0.66259765625,0.44482421875,0.86669921875,69.77988235294119,32.43902439024391,-89.32926829268294,75.57926829268294,-34.22181307870836,22.18243605206388
-0.6640625,0.43994140625,0.85498046875,69.83811764705882,33.78048780487805,-87.6219512195122,71.3109756097561,-34.630162533412516,22.116032458888995
-0.69580078125,0.37548828125,0.841796875,69.82752941176471,25.000000000000004,-90.82317073170732,63.38414634146342,-37.04819090351816,18.973531754930484
-0.6923828125,0.2939453125,0.77734375,69.76929411764706,8.810975609756099,-95.03048780487806,57.46951219512196,-39.79863680988805,15.76815717729985,66.362,739.9106259006205,47.080078125
-0.564453125,0.1943359375,0.72509765625,69.75870588235294,-11.067073170731708,-98.78048780487806,49.48170731707317,-36.94001873980419,11.941409193170246
-0.40673828125,0.10205078125,0.6552734375,69.76929411764706,-21.646341463414636,-94.84756097560977,43.75000000000001,-31.521708843167016,7.537561293705539
-0.2138671875,0.048828125,0.59326171875,69.84870588235295,-23.689024390243905,-84.42073170731707,45.457317073170735,-19.762297094072903,4.427412779236865
-0.06494140625,-0.00390625,0.54638671875,69.79576470588236,-17.04268292682927,-76.00609756097562,55.365853658536594,-6.77798405495203,-0.40675145188635864
0.01220703125,-0.0927734375,0.50390625,69.77988235294119,-2.682926829268293,-66.12804878048782,72.98780487804879,1.3647791472953832,-10.428830502818315,66.362,740.1916223492179,47.0693359375
0.02490234375,-0.1591796875,0.46728515625,69.77458823529412,12.01219512195122,-57.804878048780495,86.09756097560977,2.887837993654578,-18.786515605490674
0.013671875,-0.19873046875,0.42822265625,69.82223529411766,28.07926829268293,-52.34756097560976,92.92682926829269,1.6588421119047798,-24.884027554667522
0.00927734375,-0.1904296875,0.41015625,69.72694117647059,43.71951219512196,-48.993902439024396,93.78048780487806,1.1752969494514733,-24.89917248427984
0.0009765625,-0.18896484375,0.38818359375,69.77458823529412,58.10975609756098,-44.96951219512196,89.20731707317074,0.1296002146608261,-25.956398075584147
0.01904296875,-0.162109375,0.3564453125,69.70576470588236,69.17682926829269,-41.3719512195122,73.68902439024392,2.7841835292857473,-24.425025241554188,66.38,739.9106259006205,47.080078125
0.06982421875,-0.04736328125,0.37548828125,69.80635294117647,70.88414634146342,-33.201219512195124,56.06707317073171,10.45317562253554,-7.069268016430016
0.16357421875,0.10302734375,0.4658203125,69.81164705882352,63.8719512195122,-19.390243902439025,48.62804878048781,18.925149300870892,11.787422543277026
0.2021484375,0.068359375,0.47900390625,69.83282352941177,50.426829268292686,-8.902439024390244,57.59146341463415,22.674458124916736,7.490427154211795
0.26416015625,-0.09326171875,0.48681640625,69.82752941176471,22.439024390243905,-1.5548780487804879,74.66463414634147,28.054777308164347,-9.55793663645044
0.27099609375,-0.28515625,0.470703125,69.82223529411766,-6.707317073170732,3.963414634146342,83.62804878048782,26.21630946379081,-27.70014347487478,66.38,740.1916223492179,47.080078125
0.24365234375,-0.51806640625,0.45166015625,69.82752941176471,-34.29878048780488,13.993902439024392,78.07926829268294,19.519588915450267,-45.270960637511074
0.19482421875,-0.64208984375,0.43505859375,69.72694117647059,-44.66463414634147,18.78048780487805,62.987804878048784,14.100484083056255,-53.409717657444276
0.13134765625,-0.73486328125,0.4609375,69.79576470588236,-42.07317073170732,20.975609756097562,44.207317073170735,8.61011291509591,-56.88713317426481
0.10546875,-0.81689453125,0.501953125,69.75870588235294,-28.50609756097561,23.993902439024392,20.640243902439025,6.277423468174467,-57.87600492861771
0.12890625,-0.8203125,0.505859375,69.77458823529412,-2.6219512195121952,29.75609756097561,-9.05487804878049,7.6184035480766195,-57.52839188083155,66.38,740.1916223492179,47.11328125
0.177734375,-0.72998046875,0.56787109375,69.83811764705882,21.585365853658537,36.737804878048784,-28.475609756097562,10.878264972122963,-50.81518938982753
0.27099609375,-0.60205078125,0.6748046875,69.83282352941177,44.268292682926834,46.79878048780488,-34.93902439024391,16.681503388983934,-39.62196749341448
0.33203125,-0.53369140625,0.72412109375,69.76929411764706,53.35365853658537,51.18902439024391,-21.402439024390247,20.25965708922704,-33.82005400286479
0.35791015625,-0.4921875,0.78564453125,69.79576470588236,52.926829268292686,52.34756097560976,3.50609756097561,21.109573390845913,-29.687645920274285
0.3759765625,-0.48046875,0.88134765625,69.81164705882352,41.737804878048784,52.43902439024391,32.86585365853659,20.53351287624054,-26.630679223394925,66.38,740.1916223492179,47.1025390625
0.3525390625,-0.48095703125,0.93359375,69.84870588235295,27.378048780487806,49.63414634146342,46.15853658536586,18.556285018683358,-25.73177048035403
0.33642578125,-0.48876953125,1.072265625,69.77458823529412,9.51219512195122,44.63414634146342,44.93902439024391,15.933587248534225,-23.505383397702193
0.361328125,-0.53857421875,1.1494140625,69.69517647058825,-4.024390243902439,43.201219512195124,29.573170731707318,15.889484240332186,-24.08454490243765
0.37890625,-0.5693359375,1.1845703125,69.81694117647058,-16.951219512195124,46.554878048780495,-2.378048780487805,16.08216350956201,-24.597257692790528
0.36376953125,-0.53955078125,1.2294921875,69.81164705882352,-24.695121951219516,47.37804878048781,-27.77439024390244,15.15921249874094,-22.82175522308935,66.38,740.1916223492179,47.1240234375
0.34521484375,-0.45361328125,1.32421875,69.79576470588236,-28.689024390243905,46.25000000000001,-46.28048780487805,13.854090143452073,-18.33897222642576
0.33544921875,-0.33837890625,1.3935546875,69.82752941176471,-30.762195121951223,44.207317073170735,-57.01219512195122,13.165767535759471,-13.282847940995119
0.35546875,-0.21923828125,1.525390625,69.72164705882352,-31.89024390243903,41.40243902439025,-65.60975609756098,12.988909328539272,-7.968236023931741
0.43798828125,-0.16064453125,1.552734375,69.77458823529412,-35.1219512195122,33.140243902439025,-73.38414634146342,15.672942988577962,-5.686401199098422
0.548828125,-0.16357421875,1.61767578125,69.80635294117647,-47.04268292682927,12.01219512195122,-80.88414634146342,18.652022246033365,-5.469734145104084,66.38,740.1916223492179,47.146484375
0.51806640625,-0.23486328125,1.66748046875,69.84341176470588,-60.76219512195122,-4.969512195121951,-83.53658536585367,17.10059076679966,-7.660701116937473
0.4892578125,-0.3193359375,1.6728515625,69.81694117647058,-73.29268292682927,-12.073170731707318,-88.20121951219512,16.028399525241113,-10.382456779608534
0.544921875,-0.35400390625,1.67724609375,69.76400000000001,-78.35365853658537,-10.335365853658537,-99.0548780487805,17.634807051803143,-11.350372916524202
0.56787109375,-0.294921875,1.71533203125,69.75341176470589,-69.02439024390245,-7.408536585365854,-105.21341463414635,18.06988890716314,-9.270126958502347
0.56884765625,-0.1875,1.77587890625,69.80635294117647,-43.75000000000001,-3.8719512195121957,-105.73170731707317,17.669192934508853,-5.741739866596593,66.38,739.9106259006205,47.1357421875
0.53955078125,-0.1279296875,1.783203125,69.77988235294119,-19.78658536585366,-2.103658536585366,-107.43902439024392,16.793723568034945,-3.9281669965046784
0.49560546875,-0.083984375,1.810546875,69.84341176470588,1.7682926829268295,1.128048780487805,-114.81707317073172,15.29303846607029,-2.561721105230121
0.5185546875,-0.09326171875,1.76806640625,69.79576470588236,9.02439024390244,2.957317073170732,-122.71341463414635,16.324356955341866,-2.8975996982918333
0.51611328125,-0.16552734375,1.7333984375,69.7004705882353,7.408536585365854,-0.853658536585366,-129.2987804878049,16.50972511732797,-5.2292695661538895
0.44189453125,-0.29248046875,1.73388671875,69.85929411764707,-1.0670731707317074,-1.4329268292682928,-133.26219512195124,14.106726051634604,-9.283457259996666,66.38,739.9106259006205,47.2021484375
0.36865234375,-0.40771484375,1.67333984375,69.77988235294119,-7.896341463414635,-1.2804878048780488,-132.16463414634148,12.081692866150101,-13.384472344205134
0.2763671875,-0.50732421875,1.63037109375,69.75341176470589,-8.932926829268293,-2.9268292682926833,-127.71341463414635,9.193976329592122,-17.055723854731944
0.20703125,-0.57958984375,1.5244140625,69.81164705882352,1.1585365853658538,-9.146341463414634,-121.89024390243904,7.23469707551309,-20.64372132500023
0.2236328125,-0.61767578125,1.421875,69.76400000000001,16.981707317073173,-14.02439024390244,-122.6829268292683,8.208669740356012,-23.22581660455033
0.2880859375,-0.6201171875,1.30322265625,69.84341176470588,39.420731707317074,-17.408536585365855,-133.62804878048783,11.288494222076281,-24.920384341371257,66.38,739.9106259006205,47.212890625
0.3759765625,-0.58935546875,1.25439453125,69.80635294117647,56.12804878048781,-16.189024390243905,-148.35365853658539,15.177801148318588,-24.23021197082103
0.40087890625,-0.55029296875,1.2763671875,69.75870588235294,69.23780487804879,-13.414634146341465,-165.76219512195124,16.088321121151214,-22.358801028229216
0.28759765625,-0.61328125,1.24853515625,69.82223529411766,69.63414634146342,-14.847560975609758,-172.40853658536588,11.681434796656534,-25.57883928541849
0.1669921875,-0.70263671875,1.14794921875,69.71105882352941,58.41463414634147,-16.76829268292683,-173.01829268292684,7.072737022097833,-31.20348649323717
0.1484375,-0.7236328125,1.0517578125,69.77458823529412,48.23170731707317,-15.884146341463415,-171.76829268292684,6.632056577399009,-34.26546195338926,66.38,739.9106259006205,47.212890625
0.16162109375,-0.705078125,0.95263671875,69.81694117647058,45.60975609756098,-14.969512195121952,-167.77439024390245,7.765432983682321,-36.11845626799959
0.16357421875,-0.6083984375,0.87255859375,69.77458823529412,52.713414634146346,-17.04268292682927,-163.01829268292684,8.742188904860244,-34.42361329027238
0.166015625,-0.48779296875,0.85546875,69.75870588235294,62.6219512195122,-18.201219512195124,-159.02439024390245,9.569142800885558,-29.238459354635705
0.23095703125,-0.46044921875,0.7978515625,69.80635294117647,67.28658536585367,-16.25,-155.57926829268294,14.074928144176706,-29.001907390050356
0.29248046875,-0.52685546875,0.73974609375,69.79576470588236,58.018292682926834,-9.51219512195122,-155.15243902439025,17.851115121736708,-33.517365278895895,66.38,739.9106259006205,47.212890625
0.27294921875,-0.64404296875,0.68408203125,69.76929411764706,35.57926829268293,2.103658536585366,-154.2378048780488,16.199093508405912,-41.16756235096481
0.201171875,-0.77001953125,0.66796875,69.75870588235294,12.896341463414636,11.49390243902439,-158.38414634146343,11.163836331977379,-47.82476910545762
0.10107421875,-0.9326171875,0.64794921875,69.88576470588235,-7.01219512195122,24.939024390243905,-164.0548780487805,5.086165048726265,-54.886397487261746
0.01171875,-1.07080078125,0.59033203125,69.75870588235294,-12.987804878048781,37.743902439024396,-171.00609756097563,0.5491039921648034,-61.12729752157162
-0.08251953125,-1.14794921875,0.5380859375,69.75341176470589,-5.182926829268293,50.274390243902445,-179.72560975609758,-3.7240500423949876,-64.62891206982447,66.38,739.9106259006205,47.19140625
-0.15625,-1.11181640625,0.50341796875,69.74811764705882,10.975609756097562,58.90243902439025,-179.84756097560978,-7.295530124353807,-64.63451018971143
-0.2177734375,-1.0595703125,0.4423828125,69.76400000000001,31.76829268292683,67.40853658536587,-171.6158536585366,-10.739331081182852,-65.04469103767516
-0.2841796875,-0.9833984375,0.412109375,69.85929411764707,53.201219512195124,76.67682926829269,-157.31707317073173,-14.923598639155058,-63.02195900553921
-0.4140625,-0.82421875,0.4169921875,69.76929411764706,72.43902439024392,81.6158536585366,-133.109756097561,-24.145063224007608,-54.51204840894531
-0.4814453125,-0.66259765625,0.46142578125,69.77458823529412,79.32926829268294,81.85975609756099,-108.62804878048782,-30.80618498751625,-44.81627112642687,66.398,739.9106259006205,47.212890625
-0.517578125,-0.59912109375,0.431640625,69.72694117647059,73.35365853658537,83.78048780487805,-91.92073170731707,-35.02773901874092,-41.63637013552045
-0.51708984375,-0.6259765625,0.4365234375,69.77458823529412,56.951219512195124,91.58536585365854,-97.77439024390245,-34.12047410344287,-42.769785702895824
-0.58935546875,-0.7177734375,0.41357421875,69.76929411764706,30.823170731707318,102.53048780487806,-119.29878048780489,-35.42958621332553,-44.91172660444473
-0.73193359375,-0.7666015625,0.4384765625,69.82752941176471,12.073170731707318,108.10975609756099,-132.8658536585366,-39.65138427936716,-41.938996829192995
-0.87451171875,-0.79931640625,0.470703125,69.77988235294119,3.4756097560975614,110.97560975609757,-135.3658536585366,-43.312177166757806,-38.82834556518723,66.398,739.9106259006205,47.212890625
-0.96826171875,-0.841796875,0.55419921875,69.76400000000001,11.432926829268293,113.44512195121952,-130.85365853658539,-43.85236338730479,-37.03590985570417
-1.044921875,-0.8408203125,0.57275390625,69.76400000000001,27.53048780487805,114.32926829268294,-120.27439024390245,-45.76563622062083,-35.20768911013159
-1.18017578125,-0.79443359375,0.63525390625,69.75870588235294,50.15243902439025,112.25609756097562,-99.35975609756099,-49.242090930967905,-30.65670922629563
-1.2666015625,-0.65966796875,0.69677734375,69.84341176470588,67.89634146341464,112.34756097560977,-76.52439024390245,-52.854350520613764,-24.52845132358775
-1.36962890625,-0.45263671875,0.69775390625,69.82223529411766,78.9329268292683,109.90853658536587,-45.487804878048784,-58.73171468581133,-16.408134002059334,66.398,739.9106259006205,47.24609375
-1.56591796875,-0.22314453125,0.67333984375,69.77988235294119,85.09146341463415,92.98780487804879,2.8658536585365857,-65.62974697457855,-7.458247723171841
-1.69873046875,-0.11083984375,0.67431640625,69.81164705882352,87.59146341463415,70.39634146341464,27.713414634146343,-68.08606407014074,-3.4704717511967864
-1.71435546875,0.01513671875,0.673828125,69.76929411764706,87.28658536585367,39.96951219512196,21.981707317073173,-68.53775036685767,0.47081348364771525
-1.6845703125,0.15576171875,0.6962890625,69.82223529411766,80.85365853658537,16.890243902439025,-0.6402439024390244,-67.04494822731957,4.884171133610641
-1.65576171875,0.26513671875,0.697265625,69.80105882352942,65.64024390243902,-3.8414634146341466,-36.09756097560976,-65.74690828887933,8.39499919234923,66.398,739.9106259006205,47.24609375
-1.65185546875,0.29443359375,0.75390625,69.78517647058824,47.957317073170735,-19.634146341463417,-69.29878048780489,-63.89648415175224,9.210573908698569
-1.6767578125,0.353515625,0.78662109375,69.77988235294119,29.573170731707318,-35.487804878048784,-95.21341463414635,-62.781874394369986,10.806204856450654
-1.6240234375,0.38525390625,0.7861328125,69.82752941176471,12.042682926829269,-45.57926829268293,-110.76219512195122,-61.67236367748648,12.052872119627251
-1.482421875,0.33349609375,0.7080078125,69.80105882352942,5.548780487804878,-53.201219512195124,-106.4329268292683,-62.168918362019525,11.47525101965282
-1.302734375,0.31396484375,0.6728515625,69.7904705882353,7.347560975609757,-61.12804878048781,-88.78048780487805,-60.3188742664712,12.086221865773334,66.398,740.1916223492179,47.2353515625
-1.09326171875,0.3408203125,0.58447265625,69.80105882352942,17.347560975609756,-68.35365853658537,-60.79268292682927,-58.247962826537346,15.37220203977405
-0.861328125,0.33984375,0.49365234375,69.77988235294119,27.957317073170735,-70.51829268292684,-41.554878048780495,-55.169377034568896,18.89715535212613
-0.69921875,0.34912109375,0.408203125,69.75341176470589,36.951219512195124,-69.17682926829269,-25.0609756097561,-52.46871650225954,23.32565021543451
-0.56298828125,0.40185546875,0.40283203125,69.78517647058824,46.524390243902445,-58.04878048780488,-15.060975609756099,-44.69569820261057,30.13493079202637
-0.529296875,0.3916015625,0.4072265625,69.77988235294119,51.40243902439025,-47.40853658536586,-18.201219512195124,-43.13307925160494,30.386700463680494,66.398,740.1916223492179,47.2353515625
-0.66162109375,0.4052734375,0.41455078125,69.82223529411766,49.176829268292686,-42.804878048780495,-22.134146341463417,-48.77378651862103,27.432557145682583
-0.76171875,0.52392578125,0.4833984375,69.80635294117647,42.53048780487805,-42.804878048780495,-17.439024390243905,-46.89766491796197,30.145753128967524
-0.748046875,0.6572265625,0.5537109375,69.77988235294119,33.018292682926834,-53.9329268292683,-5.609756097560976,-41.03775950220072,35.22885832897936
-0.5615234375,0.681640625,0.576171875,69.78517647058824,24.634146341463417,-64.1158536585366,-0.6707317073170732,-32.175536852153655,40.272738402118165
-0.271484375,0.69091796875,0.55615234375,69.7904705882353,10.975609756097562,-60.487804878048784,-7.408536585365854,-17.018772407987957,48.14817714541687,66.398,740.1916223492179,47.2353515625
-0.025390625,0.6005859375,0.5576171875,69.80635294117647,-4.115853658536586,-49.60365853658537,-14.634146341463415,-1.7745519683311883,47.09508250568732
0.140625,0.45556640625,0.50537109375,69.72694117647059,-20.54878048780488,-29.939024390243905,-13.353658536585368,11.677507192705157,40.97282039185886
0.27294921875,0.3876953125,0.4755859375,69.74282352941177,-32.6219512195122,-7.01219512195122,-3.231707317073171,23.981485447511286,35.26133755308276
0.3310546875,0.3427734375,0.4912109375,69.85400000000001,-34.69512195121951,17.164634146341466,18.658536585365855,28.929153250185347,30.056309870277563
0.27734375,0.3505859375,0.51513671875,69.82752941176471,-26.707317073170735,22.926829268292686,43.32317073170732,23.993372233862306,30.93169920969201,66.398,740.1916223492179,47.24609375
0.125,0.4697265625,0.70703125,69.77458823529412,-11.463414634146343,18.262195121951223,75.21341463414635,8.3771171099917,33.19347215018371
0.103515625,0.51611328125,0.755859375,69.7904705882353,1.402439024390244,20.884146341463417,89.72560975609757,6.452732301287765,34.07842706679806
0.13818359375,0.6328125,0.7470703125,69.80635294117647,4.2682926829268295,20.701219512195124,92.92682926829269,8.033578399980845,39.79193588035581
0.15966796875,0.72509765625,0.775390625,69.77988235294119,-6.707317073170732,19.878048780487806,86.4329268292683,8.55334398170271,42.48723281692914
0.15966796875,0.732421875,0.73828125,69.81694117647058,-31.493902439024392,21.951219512195124,71.64634146341464,8.72868535358487,44.117095844071414,66.38,740.1916223492179,47.2353515625
0.1318359375,0.671875,0.68359375,69.84341176470588,-58.38414634146342,28.384146341463417,57.774390243902445,7.831576018637251,43.98175525573283
0.1533203125,0.58642578125,0.7099609375,69.83282352941177,-90.03048780487806,34.69512195121951,53.78048780487806,9.453094138475981,38.91687870465023
0.14404296875,0.49658203125,0.69384765625,69.73223529411764,-110.27439024390245,38.38414634146342,59.268292682926834,9.582258095441128,35.02092694476047
0.20166015625,0.39697265625,0.771484375,69.79576470588236,-123.96341463414635,35.243902439024396,69.45121951219512,13.08478804333561,26.46552557667574
0.2646484375,0.2119140625,0.8232421875,69.77458823529412,-132.16463414634148,32.774390243902445,79.78658536585367,17.29251240127892,13.76967630456409,66.398,740.1916223492179,47.24609375
0.3701171875,0.06298828125,0.83447265625,69.78517647058824,-135.64024390243904,34.390243902439025,81.25,23.858659063605934,3.947168968811077
0.486328125,-0.05126953125,0.837890625,69.77988235294119,-136.03658536585368,42.43902439024391,78.32317073170732,30.085259532327065,-3.029300665427241
0.49658203125,-0.046875,0.896484375,69.86458823529412,-129.69512195121953,53.71951219512196,76.76829268292684,28.94987298982876,-2.6188414380604392
0.4111328125,0.05517578125,1.0888671875,69.77458823529412,-117.16463414634147,66.34146341463415,86.09756097560977,20.66119095315245,2.7141299746351986
0.22802734375,0.1298828125,1.34228515625,69.72164705882352,-97.37804878048782,73.23170731707317,105.88414634146342,9.597374582273904,5.4492823757905295,66.398,740.1916223492179,47.291015625
0.056640625,0.1396484375,1.56787109375,69.7904705882353,-87.40853658536587,64.69512195121952,116.98170731707319,2.060805913975428,5.086535860240454
-0.1337890625,0.087890625,1.89208984375,69.76929411764706,-93.84146341463415,46.554878048780495,110.73170731707319,-4.040292010171939,2.652955141039176
-0.2080078125,-0.09912109375,2.05810546875,69.83282352941177,-113.65853658536587,34.359756097560975,84.35975609756099,-5.764514455344781,-2.7433561902583947
-0.22607421875,-0.35205078125,2.11474609375,69.7904705882353,-139.72560975609758,21.76829268292683,41.676829268292686,-6.019733419573759,-9.399003881441391
-0.23095703125,-0.54638671875,2.20556640625,69.79576470588236,-160.6707317073171,12.408536585365855,-7.225609756097562,-5.803783602692588,-13.841064207525825,66.38,740.1916223492179,47.390625
-0.216796875,-0.60205078125,2.25390625,69.73752941176471,-156.7378048780488,9.878048780487806,-20.03048780487805,-5.309193925807784,-14.88971532043532
-0.1328125,-0.65380859375,2.2685546875,69.75341176470589,-131.6768292682927,8.963414634146343,-2.987804878048781,-3.21979450279885,-16.051175795396773
-0.0947265625,-0.75146484375,2.28662109375,69.81694117647058,-83.17073170731707,3.780487804878049,33.140243902439025,-2.253751355622971,-18.177793804187836
-0.2275390625,-0.810546875,2.28564453125,69.80635294117647,-40.274390243902445,-4.786585365853659,59.146341463414636,-5.360158364040827,-19.436957759805438
-0.47900390625,-0.88671875,2.24755859375,69.71635294117647,-2.5914634146341466,-14.634146341463415,69.57317073170732,-11.213530045452902,-21.099585150012214,66.398,740.1916223492179,47.4013671875
-0.68115234375,-0.9345703125,2.22509765625,69.79576470588236,11.402439024390246,-28.871951219512198,62.22560975609757,-15.761087930292426,-21.88121210965067
-0.77490234375,-0.96484375,2.14208984375,69.74282352941177,14.786585365853659,-53.26219512195122,42.28658536585366,-18.254421223422955,-22.955537938038646
-0.748046875,-0.99072265625,2.01318359375,69.75870588235294,12.469512195121952,-71.6158536585366,19.32926829268293,-18.43789769872027,-24.76394043562923
-0.58544921875,-0.97314453125,1.85595703125,69.82752941176471,13.902439024390246,-81.40243902439025,-8.628048780487806,-15.60872538591982,-26.56721082539325
-0.33349609375,-0.85986328125,1.703125,69.76929411764706,25.09146341463415,-87.25609756097562,-32.25609756097561,-9.91509634953021,-26.356775608315573,66.398,740.1916223492179,47.423828125
-0.1494140625,-0.7744140625,1.5634765625,69.73223529411764,40.94512195121951,-86.18902439024392,-39.451219512195124,-4.894642103694576,-26.24647825651299
-0.00390625,-0.65478515625,1.466796875,69.74811764705882,59.90853658536586,-79.02439024390245,-39.08536585365854,-0.1393323747456526,-24.056137841042062
0.115234375,-0.61083984375,1.380859375,69.81164705882352,72.34756097560977,-63.35365853658537,-34.420731707317074,4.364212995480408,-23.789313077435875
0.08251953125,-0.583984375,1.2724609375,69.81164705882352,79.66463414634147,-49.90853658536586,-20.0,3.373087849540329,-24.606779723301134
-0.0986328125,-0.5498046875,1.28515625,69.79576470588236,78.56707317073172,-52.6219512195122,1.0975609756097562,-4.036196924447718,-23.10101762568826,66.398,740.1916223492179,47.4345703125
-0.294921875,-0.4814453125,1.29296875,69.79576470588236,74.08536585365854,-61.03658536585366,21.06707317073171,-12.065888115883162,-19.952532299319497
-0.37841796875,-0.43310546875,1.28857421875,69.78517647058824,70.33536585365854,-70.64024390243902,25.670731707317074,-15.555535223453806,-17.874163933175783
-0.376953125,-0.42724609375,1.22607421875,69.76400000000001,63.56707317073171,-81.52439024390245,13.140243902439025,-16.189342838451925,-18.421891489482018
-0.265625,-0.41748046875,1.13037109375,69.82752941176471,56.646341463414636,-85.0609756097561,-7.926829268292684,-12.43121125526462,-19.775390097996343
-0.0888671875,-0.40576171875,1.05517578125,69.80105882352942,49.176829268292686,-83.71951219512196,-31.920731707317074,-4.494692042836195,-20.9662133715532,66.398,740.1916223492179,47.423828125
0.05322265625,-0.37255859375,0.97119140625,69.77458823529412,45.88414634146342,-70.54878048780489,-47.28658536585366,2.9290342562175504,-20.95859469242844
0.1572265625,-0.28759765625,0.9130859375,69.76400000000001,48.62804878048781,-47.25609756097561,-53.41463414634147,9.326891278195617,-17.244608305297888
0.17529296875,-0.25634765625,0.84814453125,69.7904705882353,53.17073170731708,-30.243902439024392,-46.12804878048781,11.190835649286127,-16.48820731464196
0.06103515625,-0.25341796875,0.80126953125,69.83282352941177,54.75609756097561,-21.219512195121954,-31.82926829268293,4.153942909641411,-17.50303290856663
-0.11669921875,-0.2666015625,0.7705078125,69.75341176470589,51.646341463414636,-17.103658536585368,-15.182926829268293,-8.145520143201384,-18.886125258734996,66.398,740.1916223492179,47.4130859375
-0.2607421875,-0.2822265625,0.75048828125,69.78517647058824,46.493902439024396,-17.408536585365855,-8.658536585365855,-18.01430397013514,-19.55648837061273
-0.421875,-0.291015625,0.7236328125,69.74811764705882,41.00609756097561,-20.823170731707318,-9.786585365853659,-28.4087110088937,-19.15864185262374
-0.50732421875,-0.32177734375,0.66162109375,69.81164705882352,39.390243902439025,-22.80487804878049,-16.158536585365855,-34.58867257259976,-21.103847680724204
-0.50634765625,-0.345703125,0.56103515625,69.75870588235294,42.04268292682927,-24.939024390243905,-25.30487804878049,-37.5374634522354,-24.580986727234922
-0.43603515625,-0.34716796875,0.4755859375,69.82223529411766,47.6829268292683,-22.865853658536587,-33.75,-36.52088003233953,-28.28298510765134,66.398,740.1916223492179,47.3798828125
-0.2548828125,-0.306640625,0.404296875,69.75870588235294,57.896341463414636,-12.53048780487805,-43.26219512195122,-26.6704779375828,-32.68405814576234
-0.06103515625,-0.232421875,0.34326171875,69.75870588235294,67.16463414634147,0.853658536585366,-44.48170731707317,-8.375691878299156,-33.68908199924594
0.01611328125,-0.20458984375,0.275390625,69.75341176470589,72.07317073170732,13.26219512195122,-37.83536585365854,2.6890871554059106,-36.56208749995597
-0.11962890625,-0.1748046875,0.23046875,69.84341176470588,68.53658536585367,19.75609756097561,-25.243902439024392,-22.468317700578467,-33.94796968353862
-0.25048828125,-0.16748046875,0.259765625,69.80105882352942,59.75609756097562,20.731707317073173,-16.79878048780488,-39.022785985663525,-24.896492413709204,66.398,740.4726211210289,47.34765625
-0.44873046875,-0.16357421875,0.1953125,69.75341176470589,47.01219512195122,22.682926829268293,-14.451219512195124,-60.414746095075365,-18.481619154489785
-0.5361328125,-0.162109375,0.2216796875,69.7904705882353,39.87804878048781,10.457317073170733,-13.475609756097562,-62.87659404722079,-15.611642031015567
-0.587890625,-0.1826171875,0.20556640625,69.77458823529412,37.713414634146346,-7.286585365853659,-13.810975609756099,-64.93370273983372,-16.342310664269295
-0.53125,-0.23095703125,0.13818359375,69.81164705882352,39.08536585365854,-15.30487804878049,-21.707317073170735,-63.13255261755886,-22.818554963456055
-0.40771484375,-0.2099609375,0.05908203125,69.88576470588235,44.48170731707317,-16.85975609756098,-35.79268292682927,-61.854545937108036,-27.00552108507683,66.398,740.4726211210289,47.34765625
-0.337890625,-0.15673828125,0.0078125,69.75341176470589,51.89024390243903,-15.121951219512196,-41.554878048780495,-65.0875488806209,-24.87946023657595
-0.31201171875,-0.05078125,-0.0390625,69.78517647058824,62.46951219512196,-12.164634146341465,-37.896341463414636,-78.39639557456749,-9.173698518380506
-0.32373046875,0.0283203125,-0.07080078125,69.7904705882353,69.96951219512195,-13.140243902439025,-23.750000000000004,-76.74557840387457,4.884695691133592
-0.36279296875,0.15966796875,-0.1044921875,69.78517647058824,74.17682926829269,-17.31707317073171,-5.335365853658537,-62.2566892604639,22.924248153186323
-0.35205078125,0.2705078125,-0.109375,69.81694117647058,76.70731707317074,-27.957317073170735,17.04268292682927,-50.347733214173076,36.27047585186926,66.398,740.7536222160692,47.3359375
-0.3232421875,0.34228515625,-0.1337890625,69.81164705882352,76.6158536585366,-33.47560975609756,28.932926829268297,-41.33365658275661,44.37496786093192
-0.28955078125,0.40478515625,-0.1123046875,69.77458823529412,69.51219512195122,-40.33536585365854,28.871951219512198,-34.577828905017725,52.50314995739408
-0.26171875,0.41455078125,-0.1044921875,69.79576470588236,56.25000000000001,-43.07926829268293,17.378048780487806,-31.474257763358004,55.79254844966524
-0.16845703125,0.3818359375,-0.11328125,69.75870588235294,33.32317073170732,-35.30487804878049,-4.481707317073171,-22.926198908557467,62.00260746663727
-0.1337890625,0.34716796875,-0.08349609375,69.75341176470589,12.134146341463415,-26.52439024390244,-23.231707317073173,-20.54039332045715,65.56943019556526,66.398,740.7536222160692,47.314453125
-0.1845703125,0.17236328125,-0.0546875,69.80635294117647,-11.067073170731708,-16.34146341463415,-38.38414634146342,-45.58632437430797,41.84080554103343
-0.26318359375,-0.01220703125,-0.0478515625,69.83811764705882,-23.50609756097561,-8.506097560975611,-42.13414634146342,-79.37253854866421,-2.6128252144479016
-0.357421875,-0.10498046875,-0.03369140625,69.83811764705882,-21.615853658536587,-7.5304878048780495,-32.19512195121951,-72.85652103759267,-16.2999538858156
-0.37939453125,-0.09033203125,0.00341796875,69.83282352941177,-3.8719512195121957,-10.914634146341465,-13.140243902439025,-76.59826427503683,-13.391973882493057
-0.42041015625,0.0576171875,0.04296875,69.82223529411766,29.39024390243903,-14.756097560975611,12.164634146341465,-80.29824663869209,7.763818197327939,66.398,740.7536222160692,47.314453125
-0.34375,0.20751953125,0.064453125,69.80105882352942,56.28048780487806,-19.54268292682927,27.012195121951223,-57.7013583493304,30.68291212607623
-0.25146484375,0.36962890625,0.115234375,69.78517647058824,73.71951219512195,-17.439024390243905,24.085365853658537,-33.003169492484005,53.19075425078647
-0.1865234375,0.46533203125,0.14208984375,69.80105882352942,66.98170731707317,-10.701219512195124,20.365853658536587,-20.975090042234786,63.25661871317118
-0.1796875,0.44482421875,0.2431640625,69.82752941176471,40.243902439024396,-4.024390243902439,15.884146341463415,-19.516812120089806,55.795669010575864
-0.27490234375,0.3154296875,0.32373046875,69.81694117647058,-9.969512195121952,1.0670731707317074,6.920731707317074,-31.30800850819181,36.601507416294695,66.398,741.0346256344199,47.2802734375
-0.3095703125,0.27490234375,0.4736328125,69.76929411764706,-52.50000000000001,0.2134146341463415,-3.963414634146342,-29.47905582959067,25.912356672597518
-0.27197265625,0.25439453125,0.58056640625,69.81694117647058,-79.63414634146342,-2.6219512195121952,-17.743902439024392,-23.223016704087353,21.643232590200398
-0.15283203125,0.10009765625,0.60888671875,69.8804705882353,-88.32317073170732,0.5182926829268293,-32.10365853658537,-13.910954941558368,9.059462051594512
-0.0048828125,-0.05908203125,0.6376953125,69.74811764705882,-80.82317073170732,11.158536585365855,-36.61585365853659,-0.4368325843910789,-5.293148999630449
0.115234375,-0.20947265625,0.58935546875,69.80635294117647,-60.304878048780495,30.457317073170735,-30.243902439024392,10.438834621656872,-19.229865621884684,66.398,741.0346256344199,47.2587890625
0.0771484375,-0.13671875,0.58544921875,69.74811764705882,-36.00609756097561,41.15853658536586,-9.786585365853659,7.312451062524247,-13.035796854476303
0.07080078125,0.099609375,0.67724609375,69.72164705882352,-10.0,50.82317073170732,21.85975609756098,5.90507346339702,8.3223614964567
0.05322265625,0.37548828125,0.71728515625,69.76400000000001,9.085365853658537,60.00000000000001,59.90853658536586,3.7610742235853185,27.56682018673693
0.09326171875,0.53515625,0.814453125,69.76400000000001,6.798780487804879,64.9390243902439,91.25000000000001,5.466461724187333,33.13684024284494
0.2158203125,0.59765625,0.93896484375,69.75870588235294,-18.07926829268293,67.22560975609757,120.79268292682927,10.97361549163581,31.81257366093818,66.398,741.0346256344199,47.2802734375
0.1455078125,0.51806640625,0.98828125,69.83282352941177,-55.97560975609757,65.64024390243902,124.75609756097562,7.429581855822968,27.412086268342993
0.01708984375,0.328125,1.04150390625,69.79576470588236,-114.02439024390245,71.06707317073172,95.94512195121952,0.8966334595659228,17.484782891917007
-0.099609375,0.123046875,1.048828125,69.7904705882353,-163.01829268292684,73.59756097560977,51.554878048780495,-5.388490294859533,6.661560460349693
-0.3046875,-0.080078125,1.0390625,69.72694117647059,-207.46951219512198,71.52439024390245,-11.79878048780488,-16.297131794798172,-4.22953812445993
-0.41357421875,-0.35546875,1.10888671875,69.73223529411764,-230.51829268292684,60.335365853658544,-52.835365853658544,-19.553066544623473,-16.717834706259854,66.398,741.0346256344199,47.2802734375
-0.47998046875,-0.5634765625,1.291015625,69.84341176470588,-237.25609756097563,55.03048780487806,-89.81707317073172,-18.816221380916883,-22.249514609441317
-0.54345703125,-0.62109375,1.3916015625,69.80635294117647,-224.39024390243904,44.146341463414636,-89.72560975609757,-19.627217618590418,-22.574513662032892
