acc_x, acc_y, acc_z, acc_temp_f, gyro_x, gyro_y, gyro_z, roll, pitch, alti_temp_f, alti_ft, humid_pct
0.11083984375,0.09814453125,1.01123046875,69.62635294117648,2.8963414634146343,3.7195121951219514,-0.426829268292683,6.226132494193845,5.51065566309546,66.05600000000001,737.9437158067815,49.087890625
0.10302734375,0.10791015625,0.99365234375,69.64752941176471,3.079268292682927,2.0121951219512195,-1.402439024390244,5.885230980724406,6.165208602458736
0.0810546875,0.11181640625,0.9970703125,69.62105882352941,3.1097560975609757,1.524390243902439,-1.5853658536585367,4.618691168899661,6.3778325326404515
0.0888671875,0.11279296875,0.98486328125,69.55223529411765,3.1402439024390247,2.2865853658536586,-1.6463414634146343,5.122701875358995,6.507211875990189
0.0908203125,0.10986328125,0.9921875,69.58929411764706,3.628048780487805,2.073170731707317,-1.4634146341463417,5.198423917934715,6.292433484173844
0.09375,0.11669921875,0.986328125,69.62635294117648,4.024390243902439,0.5487804878048781,-1.676829268292683,5.39223610036854,6.717686753012748,66.05600000000001,737.9437158067815,49.08984375
0.09814453125,0.11962890625,0.98193359375,69.59458823529411,4.390243902439025,0.3353658536585366,-2.25609756097561,5.666152694099629,6.912005901594382
0.08984375,0.123046875,0.9638671875,69.6369411764706,4.420731707317073,0.24390243902439027,-2.957317073170732,5.282626959584743,7.2439394849059475
0.08447265625,0.11865234375,0.96240234375,69.62635294117648,4.024390243902439,1.524390243902439,-3.079268292682927,4.978647265068633,7.001745821251522
0.08251953125,0.125,0.96240234375,69.584,4.237804878048781,2.408536585365854,-2.8963414634146343,4.860116595410232,7.373581225798482
0.08740234375,0.12646484375,0.9677734375,69.59458823529411,3.932926829268293,2.682926829268293,-3.079268292682927,5.117270065147502,7.41516063404983,66.05600000000001,737.9437158067815,49.0009765625
0.083984375,0.126953125,0.96728515625,69.674,3.50609756097561,1.9207317073170733,-3.414634146341464,4.920265377974569,7.449442850134477
0.06298828125,0.126953125,0.97412109375,69.60517647058823,2.8353658536585367,1.524390243902439,-3.4451219512195124,3.6687497917951624,7.409966570811227
0.06884765625,0.130859375,0.9716796875,69.6104705882353,3.079268292682927,0.3658536585365854,-3.414634146341464,4.0167358893367,7.651113800921991
0.05859375,0.1328125,0.96728515625,69.60517647058823,4.085365853658537,0.24390243902439027,-2.8658536585365857,3.4343392146829355,7.803948648021528
0.0615234375,0.142578125,0.96728515625,69.68458823529411,4.786585365853659,0.8231707317073171,-2.5914634146341466,3.600552001671039,8.368366488833262,66.05600000000001,737.9437158067815,48.9892578125
0.0595703125,0.1494140625,0.95947265625,69.65811764705882,4.481707317073171,1.2195121951219514,-1.8597560975609757,3.5105318647127577,8.83456211122039
0.07568359375,0.15185546875,0.9580078125,69.59988235294118,3.2926829268292686,0.4573170731707317,-1.6158536585365855,4.4615695893553875,8.979594157933953
0.05908203125,0.150390625,0.94384765625,69.57870588235295,1.9207317073170733,-0.5182926829268293,-1.4634146341463417,3.537363038835293,9.035886730493925
0.0625,0.15087890625,0.94970703125,69.5469411764706,0.30487804878048785,0.24390243902439027,-1.0975609756097562,3.71868980988561,9.007911183965486
0.07080078125,0.14990234375,0.9560546875,69.7004705882353,-0.8231707317073171,0.8231707317073171,-0.1829268292682927,4.184379855407484,8.88706123509879,66.05600000000001,737.6627379423256,48.8896484375
0.076171875,0.14990234375,0.9658203125,69.60517647058823,-1.5548780487804879,0.9146341463414634,0.15243902439024393,4.456306625541982,8.795447440721539
0.07666015625,0.1455078125,0.97216796875,69.64223529411765,-1.9207317073170733,0.6402439024390244,-0.15243902439024393,4.459252038714993,8.486512368177415
0.06396484375,0.14697265625,0.982421875,69.584,-1.8902439024390245,0.27439024390243905,-0.27439024390243905,3.684346036255727,8.490768757095656
0.05810546875,0.14892578125,0.99267578125,69.5734117647059,-1.5853658536585367,0.3353658536585366,0.3353658536585366,3.312947929525422,8.517778599790041
0.0556640625,0.142578125,0.982421875,69.66341176470588,-0.6402439024390244,1.0975609756097562,1.0060975609756098,3.2093627266045948,8.244597411521527,66.05600000000001,737.6627379423256,48.8681640625
0.04638671875,0.1513671875,0.99365234375,69.61576470588236,-0.6097560975609757,1.8597560975609757,1.676829268292683,2.642361922017618,8.65223484222278
0.0556640625,0.146484375,0.982421875,69.60517647058823,-1.4634146341463417,1.2195121951219514,2.804878048780488,3.2075295209098322,8.467245102417358
0.06396484375,0.1416015625,0.9833984375,69.56811764705884,-1.0060975609756098,0.426829268292683,3.1402439024390247,3.683657773970251,8.176772850220623
0.06787109375,0.1455078125,0.9853515625,69.63164705882353,-0.8231707317073171,0.030487804878048783,3.1402439024390247,3.898172647608185,8.380639272341647
0.0712890625,0.138671875,0.98876953125,69.62105882352941,-1.0365853658536586,-1.0975609756097562,3.3231707317073176,4.083987750360163,7.963081099691681,66.05600000000001,737.6627379423256,48.8125
0.06689453125,0.13525390625,0.97314453125,69.67929411764706,-0.8231707317073171,-1.0975609756097562,3.3841463414634148,3.895035968024339,7.894253265021403
0.0849609375,0.1416015625,0.96875,69.67929411764706,-1.0975609756097562,-0.8231707317073171,3.810975609756098,4.959672378527081,8.284639718729474
0.08349609375,0.134765625,0.97509765625,69.65282352941176,-2.530487804878049,0.6402439024390244,3.3841463414634148,4.848346915500417,7.840513715419243
0.0908203125,0.12841796875,0.994140625,69.58929411764706,-4.481707317073171,-0.27439024390243905,3.231707317073171,5.1770242718001995,7.33022462322035
0.09423828125,0.11572265625,1.00048828125,69.62635294117648,-4.573170731707317,-3.1707317073170733,2.25609756097561,5.345513900864177,6.569043837840087,66.05600000000001,737.6627379423256,48.779296875
0.08837890625,0.1201171875,1.0,69.6369411764706,-2.8963414634146343,-4.0548780487804885,1.524390243902439,5.014754325533824,6.823049514645071
0.08056640625,0.1171875,0.99560546875,69.70576470588236,-0.48780487804878053,-3.5975609756097566,1.25,4.594826744670624,6.691423620980295
0.08447265625,0.12109375,0.9873046875,69.68458823529411,0.6707317073170732,-2.774390243902439,1.4939024390243905,4.854053339947014,6.967248878608599
0.08154296875,0.1240234375,0.98779296875,69.58929411764706,2.0121951219512195,-1.829268292682927,1.707317073170732,4.6825060455675835,7.132376653117689
0.06787109375,0.13232421875,0.96875,69.64223529411765,2.9268292682926833,-1.25,1.7682926829268295,3.970868890685065,7.759265547712511,66.05600000000001,737.6627379423256,48.734375
0.0771484375,0.130859375,0.95361328125,69.62635294117648,3.2012195121951224,-0.3353658536585366,2.1341463414634148,4.58246421313934,7.78846735093372
0.08447265625,0.1396484375,0.9560546875,69.584,3.0182926829268295,1.1585365853658538,2.6524390243902443,4.996534799696659,8.278475805477841
0.09814453125,0.14013671875,0.95751953125,69.62105882352941,1.707317073170732,1.8597560975609757,2.25609756097561,5.791040771065158,8.28355513692696
0.09423828125,0.140625,0.9580078125,69.61576470588236,-0.6707317073170732,1.676829268292683,1.7987804878048783,5.558864547563347,8.311202177986551
0.09033203125,0.13671875,0.97021484375,69.54164705882354,-1.6463414634146343,0.27439024390243905,1.2195121951219514,5.267454897880429,7.98698078817471,66.05600000000001,737.6627379423256,48.6796875
0.07958984375,0.1376953125,0.97998046875,69.674,-1.5548780487804879,-1.9207317073170733,0.6402439024390244,4.598157298735462,7.9722574241062505
0.076171875,0.130859375,0.98486328125,69.62105882352941,-1.3414634146341464,-3.780487804878049,0.15243902439024393,4.384220120572221,7.54631618918284
0.07763671875,0.12939453125,0.98291015625,69.65282352941176,-0.8231707317073171,-4.481707317073171,0.48780487804878053,4.477747225552749,7.476517357679826
0.07763671875,0.125,0.9794921875,69.61576470588236,0.39634146341463417,-5.182926829268293,0.27439024390243905,4.495606655024637,7.250117408632528
0.08203125,0.123046875,0.98486328125,69.60517647058823,0.7926829268292683,-5.396341463414634,-0.24390243902439027,4.724726488412958,7.097195991780305,66.05600000000001,737.6627379423256,48.6572265625
0.07958984375,0.12744140625,0.9794921875,69.56811764705884,0.6707317073170732,-4.5426829268292686,-0.3353658536585366,4.606773051191755,7.389008620966831
0.0732421875,0.12646484375,0.96728515625,69.66870588235295,0.48780487804878053,-2.8658536585365857,0.030487804878048783,4.293731848546958,7.427693705178285
0.07373046875,0.12744140625,0.97705078125,69.56282352941176,-0.3658536585365854,-1.2804878048780488,0.4573170731707317,4.279377202692898,7.410573151926686
0.07666015625,0.1240234375,0.99072265625,69.674,-2.225609756097561,0.030487804878048783,0.853658536585366,4.390484490640029,7.114395065179895
0.07958984375,0.115234375,0.99072265625,69.584,-3.1707317073170733,-0.39634146341463417,0.9756097560975611,4.562373849586201,6.613342028965142,66.05600000000001,737.6627379423256,48.5908203125
0.08056640625,0.10791015625,1.0029296875,69.58929411764706,-2.713414634146342,-1.4329268292682928,0.5792682926829269,4.566524476789248,6.121541424278521
0.08984375,0.1142578125,1.0078125,69.59988235294118,-1.1585365853658538,-2.9268292682926833,0.426829268292683,5.06203875945248,6.442790266336141
0.09521484375,0.11181640625,0.98388671875,69.64223529411765,1.0060975609756098,-5.5182926829268295,0.27439024390243905,5.492402867239122,6.453817482115205
0.0947265625,0.11376953125,0.96484375,69.62105882352941,3.048780487804878,-4.786585365853659,0.4573170731707317,5.56888702781235,6.693091731023157
0.09033203125,0.1279296875,0.95166015625,69.60517647058823,3.2926829268292686,-2.5,1.3414634146341464,5.374242263812919,7.622397780351039,66.05600000000001,737.6627379423256,48.5908203125
0.09521484375,0.13232421875,0.94677734375,69.56282352941176,1.25,-0.12195121951219513,1.829268292682927,5.68785772225807,7.916854824693674
0.1044921875,0.12744140625,0.955078125,69.64223529411765,-1.3109756097560976,-1.0365853658536586,1.3414634146341464,6.189297570168916,7.555838221602282
0.09765625,0.134765625,0.96435546875,69.63164705882353,-2.774390243902439,-1.676829268292683,0.4573170731707317,5.727115119347678,7.915418606107346
0.0859375,0.13818359375,0.97412109375,69.58929411764706,-4.969512195121951,-3.9024390243902443,0.24390243902439027,4.991894063001118,8.042976945823776
0.0751953125,0.13525390625,0.9736328125,69.63164705882353,-5.823170731707317,-3.26219512195122,0.853658536585366,4.374441841339993,7.885542916350615,66.05600000000001,737.6627379423256,48.5576171875
0.0849609375,0.1328125,0.9970703125,69.6369411764706,-6.219512195121951,-2.408536585365854,1.4634146341463417,4.828002389244264,7.560213114287234
0.10498046875,0.1318359375,0.990234375,69.64223529411765,-4.420731707317073,-1.9207317073170733,2.0121951219512195,5.99910894063643,7.5417662297803005
0.1083984375,0.1337890625,0.998046875,69.62105882352941,-1.524390243902439,-1.707317073170732,1.6158536585365855,6.144097927524703,7.590918018653041
0.1015625,0.1416015625,0.98095703125,69.6369411764706,-0.7317073170731708,-0.9146341463414634,1.3414634146341464,5.850791045070823,8.170850468838037
0.103515625,0.14892578125,0.9833984375,69.56282352941176,-2.0426829268292686,-1.1585365853658538,1.128048780487805,5.941750912147242,8.5648221382326,66.05600000000001,737.6627379423256,48.46875
0.09912109375,0.15185546875,0.9892578125,69.61576470588236,-3.5670731707317076,-0.39634146341463417,1.0060975609756098,5.655980414444838,8.684219289419469
0.099609375,0.1435546875,1.00146484375,69.56811764705884,-4.298780487804878,-0.24390243902439027,1.2804878048780488,5.623063884003566,8.117958389515833
0.10498046875,0.13623046875,1.0263671875,69.61576470588236,-4.75609756097561,0.09146341463414635,1.0975609756097562,5.789677844514974,7.521925618669376
0.103515625,0.138671875,1.0224609375,69.58929411764706,-3.7500000000000004,-2.5914634146341466,1.1585365853658538,5.728924929308863,7.684836462026271
0.0947265625,0.13623046875,1.02880859375,69.63164705882353,-2.378048780487805,-6.219512195121951,0.24390243902439027,5.215351621551176,7.511574352860595,66.05600000000001,737.6627379423256,48.4794921875
0.09326171875,0.130859375,1.0302734375,69.59988235294118,-2.408536585365854,-8.597560975609756,0.30487804878048785,5.131389990802551,7.209453517065911
0.09033203125,0.123046875,1.00927734375,69.64223529411765,-2.0121951219512195,-5.853658536585367,0.5182926829268293,5.07704837849095,6.923553726487342
0.078125,0.12890625,1.0205078125,69.6104705882353,-1.3414634146341464,-2.5,0.8841463414634148,4.343361060198324,7.178449168356416
0.08154296875,0.11474609375,1.0400390625,69.66341176470588,-0.5792682926829269,-0.7621951219512195,1.5853658536585367,4.456104521695608,6.276794122891176
0.0830078125,0.1103515625,1.03515625,69.6369411764706,2.8353658536585367,1.1585365853658538,1.8597560975609757,4.558941137197347,6.065640540482249,66.05600000000001,737.9437158067815,48.4248046875
0.080078125,0.11083984375,1.02587890625,69.56811764705884,6.310975609756098,3.048780487804878,2.0426829268292686,4.437625346782147,6.147974728279512
0.09033203125,0.115234375,1.0126953125,69.60517647058823,9.756097560975611,3.231707317073171,2.347560975609756,5.064758622043622,6.466296417473058
0.08984375,0.12060546875,0.98779296875,69.60517647058823,10.914634146341465,3.7195121951219514,2.25609756097561,5.158881030107335,6.932788331723402
0.08056640625,0.12255859375,0.97021484375,69.57870588235295,9.390243902439025,2.1951219512195124,2.957317073170732,4.709679550666266,7.175095298474734
0.09423828125,0.12744140625,0.958984375,69.6104705882353,5.884146341463415,-1.829268292682927,2.957317073170732,5.563767303951733,7.533930821511201,66.05600000000001,737.6627379423256,48.4130859375
0.103515625,0.119140625,0.95556640625,69.6369411764706,2.682926829268293,-4.024390243902439,2.439024390243903,6.13555008664655,7.066080372297923
0.0986328125,0.1220703125,0.9541015625,69.61576470588236,-0.24390243902439027,-3.1402439024390247,2.25609756097561,5.8547503508061425,7.252728185286696
0.1025390625,0.126953125,0.9814453125,69.584,-2.0426829268292686,-1.9207317073170733,2.6524390243902443,5.915555940059067,7.331003134800918
0.1162109375,0.12158203125,0.98974609375,69.6104705882353,-2.4695121951219514,-3.932926829268293,2.682926829268293,6.647202820912471,6.955910726374058
0.1220703125,0.11083984375,1.0009765625,69.62105882352941,-2.0121951219512195,-7.103658536585367,1.524390243902439,6.911128370965606,6.272620855624155,66.05600000000001,737.6627379423256,48.3798828125
0.1025390625,0.1162109375,1.00146484375,69.6104705882353,-1.3414634146341464,-4.725609756097561,1.2804878048780488,5.80738970758917,6.5849313696983085
0.09375,0.1171875,1.01806640625,69.6104705882353,-0.4573170731707317,-0.7621951219512195,1.9512195121951221,5.2269983797897615,6.538873780162409
0.1181640625,0.11572265625,1.01708984375,69.64223529411765,1.8902439024390245,3.658536585365854,3.2012195121951224,6.584726707852781,6.4480951649394775
0.1396484375,0.11376953125,1.00830078125,69.6369411764706,5.274390243902439,5.2439024390243905,2.5609756097560976,7.83613282674066,6.377258262484358
0.13330078125,0.119140625,1.00146484375,69.62105882352941,6.189024390243903,3.231707317073171,1.1585365853658538,7.5293553784421965,6.725616386248913,66.05600000000001,737.6627379423256,48.3466796875
0.134765625,0.130859375,0.9892578125,69.59988235294118,5.3048780487804885,-2.225609756097561,0.0,7.691405633848149,7.467176143177757
0.12841796875,0.13720703125,0.96142578125,69.63164705882353,3.9024390243902443,-5.701219512195123,-0.6707317073170732,7.532554700698649,8.05139931050252
0.1123046875,0.14453125,0.9677734375,69.584,2.439024390243903,-6.859756097560976,-0.701219512195122,6.547277411619631,8.438206165698023
0.1171875,0.13525390625,0.96435546875,69.584,-0.9451219512195123,-5.884146341463415,-0.6097560975609757,6.862041006466815,7.926276829337182
0.123046875,0.13525390625,0.98193359375,69.65811764705882,-2.8658536585365857,-3.4451219512195124,-0.8231707317073171,7.076420672599024,7.782596104741762,66.05600000000001,737.6627379423256,48.3359375
0.119140625,0.134765625,1.00341796875,69.60517647058823,-3.1097560975609757,-1.3719512195121952,-0.9756097560975611,6.7115956973261035,7.596692848732154
0.11181640625,0.13232421875,0.994140625,69.64223529411765,-1.128048780487805,0.5792682926829269,-1.3109756097560976,6.3617560258620465,7.534780290011155
0.107421875,0.13525390625,1.00830078125,69.674,0.853658536585366,1.5853658536585367,-1.0670731707317074,6.02762733404211,7.5975852551453675
0.0986328125,0.138671875,1.025390625,69.6104705882353,1.128048780487805,2.347560975609756,-1.0975609756097562,5.445137664528296,7.666881167524647
0.10693359375,0.14599609375,1.02978515625,69.64223529411765,0.9451219512195123,2.5609756097560976,-1.0060975609756098,5.8701013483937095,8.026646215850308,66.05600000000001,737.6627379423256,48.2919921875
0.1162109375,0.158203125,1.05419921875,69.5734117647059,3.048780487804878,2.164634146341464,-1.0975609756097562,6.221558908321193,8.48401997887215
0.10791015625,0.18310546875,1.0625,69.674,4.237804878048781,0.5182926829268293,-0.8841463414634148,5.715535311696407,9.728914075762342
0.08984375,0.2353515625,1.11572265625,69.62105882352941,3.4451219512195124,-1.128048780487805,-0.30487804878048785,4.5051011289465315,11.874063894729394
0.041015625,0.25634765625,1.18798828125,69.60517647058823,-1.1890243902439026,1.829268292682927,1.981707317073171,1.932913711778456,12.169718182076144
0.044921875,0.3056640625,1.29345703125,69.6104705882353,-2.25609756097561,6.7682926829268295,6.920731707317074,1.9358117009871787,13.28823602820914,66.05600000000001,737.6627379423256,48.2802734375
0.08935546875,0.37353515625,1.3857421875,69.62635294117648,0.7926829268292683,5.945121951219512,13.04878048780488,3.5626239911356006,15.056018405153782
0.1591796875,0.466796875,1.451171875,69.5575294117647,4.603658536585367,0.09146341463414635,19.634146341463417,5.961285391479833,17.731731339488537
0.2607421875,0.48828125,1.53515625,69.6369411764706,6.432926829268293,-9.725609756097562,25.823170731707318,9.194006289908552,17.41013562565489
0.3583984375,0.53564453125,1.68505859375,69.65811764705882,-2.8963414634146343,-17.378048780487806,28.14024390243903,11.458460453443777,17.271717754005582
0.39208984375,0.46826171875,1.8681640625,69.64223529411765,-24.481707317073173,-31.03658536585366,31.34146341463415,11.507132780369576,13.782989478554452,66.05600000000001,737.6627379423256,48.2470703125
0.42041015625,0.41162109375,2.005859375,69.61576470588236,-35.1219512195122,-37.22560975609756,31.12804878048781,11.602317373634182,11.356497022681932
0.40283203125,0.39208984375,2.16845703125,69.62105882352941,-38.68902439024391,-36.61585365853659,35.57926829268293,10.359550777286987,10.08036902497994
0.3955078125,0.3193359375,2.28076171875,69.59988235294118,-36.524390243902445,-47.835365853658544,41.463414634146346,9.744647987186331,7.854603984767077
0.40576171875,0.23095703125,2.41162109375,69.57870588235295,-31.52439024390244,-66.18902439024392,45.54878048780488,9.508012789576373,5.395065582892509
0.4453125,0.15673828125,2.52734375,69.59458823529411,-30.030487804878053,-87.01219512195122,45.670731707317074,9.974047167576982,3.4950653385617314,66.05600000000001,737.6627379423256,48.224609375
0.50146484375,0.0234375,2.580078125,69.6369411764706,-17.957317073170735,-118.50609756097562,40.03048780487805,10.99845440463564,0.5109021749273853
0.49169921875,-0.05615234375,2.521484375,69.5575294117647,2.6524390243902443,-137.9878048780488,30.57926829268293,11.031754734308178,-1.2521630014472283
0.49267578125,-0.03515625,2.45361328125,69.64223529411765,28.475609756097562,-148.75,24.05487804878049,11.352645123640096,-0.804835682607769
0.4150390625,-0.0712890625,2.34765625,69.62635294117648,51.18902439024391,-163.8109756097561,19.32926829268293,10.021128559110082,-1.7127688828915621
0.40234375,-0.08544921875,2.2060546875,69.62105882352941,67.37804878048782,-174.1158536585366,16.402439024390244,10.328512756919647,-2.182222037255921,66.05600000000001,737.6627379423256,48.26953125
0.37646484375,-0.11376953125,1.96728515625,69.66341176470588,93.8109756097561,-180.70121951219514,13.993902439024392,10.815656906386513,-3.2509116832207376
0.3857421875,-0.095703125,1.72509765625,69.63164705882353,112.6829268292683,-180.85365853658539,12.408536585365855,12.585604631716356,-3.0989652288007195
0.3896484375,-0.06103515625,1.50146484375,69.62105882352941,118.32317073170732,-172.0426829268293,9.847560975609756,14.536537320676784,-2.2532574762706834
0.4306640625,-0.0166015625,1.27880859375,69.58929411764706,117.28658536585367,-174.359756097561,5.853658536585367,18.610509031106034,-0.7048810354144118
0.45361328125,0.00341796875,1.10693359375,69.55223529411765,116.6158536585366,-174.78658536585368,-1.4634146341463417,22.28336333287229,0.16370409991348653,66.074,737.6627379423256,48.2802734375
0.4375,0.037109375,0.9267578125,69.65282352941176,115.15243902439025,-166.89024390243904,-8.170731707317074,25.253151846343137,2.073780181588403
0.41845703125,0.03271484375,0.7666015625,69.59458823529411,111.46341463414635,-154.90853658536588,-14.359756097560977,28.606439087826672,2.1451794626510283
0.46435546875,0.03857421875,0.646484375,69.56811764705884,102.50000000000001,-140.33536585365854,-19.725609756097562,35.64062657746436,2.774492115208666
0.5009765625,0.05908203125,0.51513671875,69.584,93.01829268292684,-123.50609756097562,-26.707317073170735,44.01449908957202,4.700379695798086
0.46923828125,0.09033203125,0.41259765625,69.62105882352941,78.17073170731707,-97.7439024390244,-34.146341463414636,48.0090177452354,8.22619598970948,66.074,737.6627379423256,48.2587890625
0.38818359375,0.12451171875,0.38720703125,69.65811764705882,62.16463414634147,-82.6219512195122,-38.41463414634147,43.66318133527522,12.794490604853358
0.31103515625,0.1640625,0.423828125,69.62105882352941,44.207317073170735,-68.9329268292683,-42.5609756097561,34.38713963006117,17.331928594527234
0.26318359375,0.16748046875,0.498046875,69.56811764705884,33.84146341463415,-61.85975609756098,-41.58536585365854,26.604929803104582,16.55804512041578
0.2255859375,0.162109375,0.6044921875,69.6104705882353,24.512195121951223,-59.63414634146342,-39.176829268292686,19.821513327922283,14.103597661620181
0.23779296875,0.16015625,0.60693359375,69.584,30.182926829268297,-62.6219512195122,-32.34756097560976,20.748032880194316,13.80377206314355,66.074,737.9437158067815,48.1806640625
0.37646484375,0.25732421875,0.57275390625,69.69517647058825,49.57317073170732,-77.46951219512196,-29.08536585365854,30.945150840560157,20.577978264287843
0.4287109375,0.2255859375,0.4716796875,69.61576470588236,69.51219512195122,-89.75609756097562,-31.09756097560976,39.35011573716176,19.489764340532044
0.47802734375,0.20947265625,0.3408203125,69.63164705882353,76.67682926829269,-87.8048780487805,-31.981707317073173,50.0750585822612,19.636467631474304
0.49560546875,0.162109375,0.24755859375,69.59988235294118,72.01219512195122,-76.09756097560977,-34.51219512195122,59.159655429652105,16.310480879431704
0.51171875,0.12548828125,0.15625,69.53635294117647,61.554878048780495,-49.48170731707317,-37.43902439024391,68.61333376512064,13.199519821235427,66.074,738.2246959940958,48.1474609375
0.5703125,0.07080078125,0.1064453125,69.65811764705882,53.35365853658537,-16.189024390243905,-41.493902439024396,77.36544532907828,6.957766761541952
0.5673828125,0.0302734375,0.1220703125,69.57870588235295,45.243902439024396,21.646341463414636,-53.47560975609757,77.50168758996665,2.985995525179123
0.41796875,0.02587890625,0.23486328125,69.61576470588236,30.121951219512198,28.445121951219516,-63.23170731707317,60.51979614604215,3.0897040348790177
0.2880859375,-0.0751953125,0.27392578125,69.65282352941176,16.402439024390244,16.402439024390244,-69.17682926829269,45.403232017502944,-10.71134661840565
0.1982421875,-0.15771484375,0.2802734375,69.56811764705884,16.463414634146343,-4.573170731707317,-75.94512195121952,31.650630724581596,-24.6745983938919,66.074,738.2246959940958,48.103515625
0.18408203125,-0.2626953125,0.130859375,69.62105882352941,35.213414634146346,-40.73170731707317,-84.42073170731707,32.097157361632156,-49.31239553736231
0.1416015625,-0.24365234375,-0.16552734375,69.58929411764706,56.951219512195124,-153.84146341463415,-111.79878048780489,25.674609578950196,-48.202539418040836
0.15380859375,-0.1064453125,-0.3818359375,69.60517647058823,47.987804878048784,-284.9085365853659,-132.22560975609758,21.207156521290194,-14.498091355545242
0.0908203125,0.009765625,-0.5078125,69.6104705882353,7.591463414634147,-371.3414634146342,-145.03048780487805,10.138089525024784,1.0845024245657446
-0.03076171875,0.20556640625,-0.4892578125,69.5469411764706,-73.41463414634147,-390.12195121951225,-145.1829268292683,-3.3174736736260066,22.749846578312436,66.074,738.5056785043329,48.0810546875
-0.126953125,0.25537109375,-0.4189453125,69.674,-148.32317073170734,-348.14024390243907,-134.14634146341464,-14.507057155463405,30.257621148093016
-0.21142578125,0.19482421875,-0.23779296875,69.61576470588236,-204.66463414634148,-291.3109756097561,-117.04268292682927,-34.518674035593406,31.47848825856081
-0.2841796875,0.12646484375,-0.025390625,69.66341176470588,-221.46341463414637,-288.109756097561,-101.34146341463415,-65.58680754863333,23.90538654247714
-0.2021484375,0.125,0.12646484375,69.6104705882353,-216.31097560975613,-315.51829268292687,-85.67073170731707,-48.664223005644516,27.6645969714407
-0.14111328125,0.06884765625,0.3173828125,69.59988235294118,-201.70731707317074,-304.51219512195127,-65.21341463414635,-23.485420225256053,11.21151728037897,66.074,738.5056785043329,48.025390625
-0.14404296875,0.02001953125,0.40234375,69.61576470588236,-174.32926829268294,-235.7926829268293,-46.00609756097561,-19.675391592746504,2.682096714062087
-0.18603515625,-0.00048828125,0.4296875,69.65282352941176,-126.4939024390244,-137.53048780487805,-23.932926829268293,-23.410404904198497,-0.05974921489645854
-0.1044921875,-0.03564453125,0.4423828125,69.66870588235295,-45.0609756097561,-10.548780487804878,6.2804878048780495,-13.248443393739326,-4.483738984926808
0.07275390625,0.0283203125,0.42138671875,69.63164705882353,17.439024390243905,75.88414634146342,27.134146341463417,9.774123613017538,3.789026907972662
0.3251953125,0.09423828125,0.33544921875,69.6369411764706,65.85365853658537,157.83536585365854,37.774390243902445,43.024116988618054,11.403975312556728,66.074,738.786663337509,48.0146484375
0.52099609375,0.19482421875,0.28564453125,69.584,86.64634146341464,208.96341463414635,40.1219512195122,56.42976485068382,18.154156647973316
0.60009765625,0.21142578125,0.22021484375,69.6369411764706,98.26219512195122,225.00000000000003,33.47560975609756,63.036831236221026,18.301737393725954
0.63916015625,0.21240234375,0.10498046875,69.59458823529411,108.23170731707317,226.9207317073171,25.731707317073173,69.66081080162401,18.15540249029543
0.666015625,0.31298828125,0.09521484375,69.64752941176471,113.38414634146342,237.28658536585368,14.725609756097562,63.83946941228114,24.94838470782437
0.63720703125,0.33251953125,0.08740234375,69.58929411764706,109.66463414634147,275.88414634146346,8.323170731707318,61.650261947190415,27.338886768016597,66.074,738.786663337509,48.00390625
0.63623046875,0.33251953125,0.158203125,69.64223529411765,110.2439024390244,333.8719512195122,4.786585365853659,59.9387251284798,26.893905250251766
0.63427734375,0.32568359375,0.2734375,69.62635294117648,117.37804878048782,414.6036585365854,2.164634146341464,56.160178626302944,25.244920024723665
0.568359375,0.3544921875,0.37158203125,69.584,142.07317073170734,522.2865853658537,2.0426829268292686,47.89988363439658,27.56650589249845
0.36962890625,0.40771484375,0.41455078125,69.60517647058823,177.28658536585368,585.1524390243903,4.115853658536586,32.4442141686328,36.28171814086123
0.1484375,0.43505859375,0.3671875,69.6104705882353,215.33536585365854,630.6707317073171,9.664634146341465,14.613752064233168,47.68680880367536,66.05600000000001,739.3486399729043,47.9814453125
0.22216796875,0.63671875,0.345703125,69.62105882352941,236.64634146341464,671.6768292682927,18.29268292682927,17.04783748479013,57.16188028678956
0.18798828125,0.6240234375,0.2119140625,69.6104705882353,250.09146341463418,696.1585365853659,22.652439024390247,15.920931165537977,65.5840324739461
0.08154296875,0.73486328125,0.060546875,69.61576470588236,256.9817073170732,689.359756097561,22.621951219512198,6.310624666133449,82.13113836199335
-0.00146484375,0.8193359375,-0.0205078125,69.66341176470588,247.34756097560978,660.0304878048781,21.52439024390244,-0.10240365789264924,88.56254614459111
-0.0615234375,0.97509765625,-0.02490234375,69.57870588235295,216.21951219512198,627.3780487804879,18.8109756097561,-3.6090973872107965,86.1060450375374,66.05600000000001,739.3486399729043,47.970703125
-0.2109375,1.0654296875,0.00537109375,69.65282352941176,183.41463414634148,588.1707317073171,17.28658536585366,-11.1986576761156,78.79766555461974
-0.34912109375,1.08251953125,0.0859375,69.58929411764706,147.59146341463415,534.5731707317074,19.847560975609756,-17.8224119036762,71.62687395624206
-0.47998046875,1.060546875,0.17822265625,69.6104705882353,127.62195121951221,486.5243902439025,29.35975609756098,-24.052166335117906,64.23012883518061
-0.52099609375,0.9951171875,0.25927734375,69.62635294117648,120.51829268292684,453.0487804878049,38.23170731707317,-26.868507061402436,59.68082173518008
-0.52587890625,0.88720703125,0.3017578125,69.63164705882353,117.92682926829269,418.8414634146342,44.176829268292686,-29.299610769750657,55.651816085634444,66.074,739.3486399729043,48.0146484375
-0.33251953125,0.99755859375,0.28076171875,69.68458823529411,123.01829268292684,397.62195121951225,46.737804878048784,-17.789722063765627,66.43018399311266
-0.24560546875,0.97119140625,0.162109375,69.64752941176471,139.02439024390245,348.62804878048786,38.38414634146342,-14.006034302357916,73.14263357048047
-0.25927734375,1.0439453125,-0.06640625,69.58929411764706,143.8109756097561,268.6280487804878,20.121951219512198,-13.920892751324727,75.62025364749567
-0.29833984375,1.02685546875,-0.2744140625,69.59458823529411,128.07926829268294,184.78658536585368,4.817073170731708,-15.678761878636339,68.45836302860275
-0.392578125,1.021484375,-0.3798828125,69.63164705882353,83.59756097560977,56.92073170731708,-19.451219512195124,-19.809922951275748,61.8622906589502,66.074,739.3486399729043,48.025390625
-0.5185546875,1.05419921875,-0.3994140625,69.61576470588236,27.957317073170735,-79.42073170731707,-38.68902439024391,-24.701758111047692,58.16409833976973
-0.65869140625,1.05517578125,-0.31396484375,69.5734117647059,-52.31707317073171,-214.4817073170732,-50.0609756097561,-30.893076240380736,55.33480128369703
-0.73828125,1.06494140625,-0.1142578125,69.63164705882353,-120.54878048780489,-287.2256097560976,-47.957317073170735,-34.57864984805201,54.949838347722526
-0.6640625,1.015625,0.05712890625,69.5575294117647,-168.2317073170732,-351.70731707317077,-44.207317073170735,-33.13707270517055,56.72466064486252
-0.60400390625,0.91748046875,0.32421875,69.61576470588236,-201.89024390243904,-373.9024390243903,-33.65853658536586,-31.828385651150537,53.233747588351896,66.074,739.3486399729043,48.091796875
-0.39111328125,0.82470703125,0.5546875,69.54164705882354,-221.18902439024393,-339.81707317073176,-28.8109756097561,-21.48048911221826,50.546591982271856
-0.306640625,0.66943359375,0.85888671875,69.66341176470588,-217.8048780487805,-295.4268292682927,-29.695121951219516,-15.72674602386244,36.28019261554739
-0.21240234375,0.49169921875,0.9951171875,69.6369411764706,-190.1219512195122,-287.8658536585366,-30.731707317073173,-10.833110422259137,25.791083134902486
0.05078125,0.48974609375,1.05908203125,69.62105882352941,-139.75609756097563,-318.2926829268293,-39.93902439024391,2.4919669468440495,24.791952009318127
0.16064453125,0.51318359375,0.96484375,69.62105882352941,-110.42682926829269,-378.2926829268293,-49.29878048780488,8.362499290577428,27.684203829754285,66.074,739.3486399729043,48.125
0.29052734375,0.49169921875,0.763671875,69.6104705882353,-117.53048780487806,-459.9085365853659,-57.774390243902445,17.737773378772744,31.038881288580505
0.4111328125,0.501953125,0.6376953125,69.56811764705884,-148.32317073170734,-524.1158536585366,-62.04268292682927,26.86688264406364,33.48710479086872
0.505859375,0.53271484375,0.54638671875,69.674,-184.63414634146343,-586.9207317073171,-63.68902439024391,33.54037401009925,35.5812826362266
0.4912109375,0.52978515625,0.52294921875,69.63164705882353,-222.71341463414637,-625.4878048780488,-56.92073170731708,33.41942124320932,36.44241124220724
0.421875,0.4833984375,0.576171875,69.62635294117648,-238.62804878048783,-620.0609756097562,-42.926829268292686,29.289484970667694,34.095041684309535,66.074,739.6296317752041,48.203125
0.4189453125,0.4384765625,0.58447265625,69.65282352941176,-227.9268292682927,-589.7560975609756,-20.640243902439025,29.828928668926544,31.372601209371105
0.4423828125,0.3828125,0.57470703125,69.6104705882353,-199.4207317073171,-523.5365853658537,1.25,32.64529604813339,27.826599805549073
0.458984375,0.3759765625,0.50634765625,69.5734117647059,-167.10365853658539,-433.20121951219517,22.896341463414636,36.04604575293774,28.817159133095714
0.6396484375,0.35107421875,0.3095703125,69.62635294117648,-121.64634146341464,-301.5548780487805,42.743902439024396,53.804941142091806,26.29111241816497
0.72802734375,0.3076171875,0.20263671875,69.6104705882353,-96.98170731707317,-165.33536585365854,63.810975609756106,63.161882641607384,22.149346936908923,66.074,739.6296317752041,48.34765625
0.81640625,0.3154296875,0.11181640625,69.56811764705884,-96.58536585365854,-84.57317073170732,70.94512195121952,67.71023715302769,20.946347765978324
0.86279296875,0.25146484375,0.0703125,69.584,-109.51219512195122,-31.615853658536587,71.6158536585366,73.16243189956472,16.198127706457985
0.79833984375,0.2587890625,0.17041015625,69.66870588235295,-139.0548780487805,-0.7317073170731708,67.43902439024392,68.78743418652384,17.58951505512763
0.68505859375,0.2109375,0.34326171875,69.62105882352941,-168.78048780487805,5.7926829268292686,67.34756097560977,59.539554462400126,15.391521642530723
0.61181640625,0.115234375,0.498046875,69.5575294117647,-181.09756097560978,14.603658536585368,68.9329268292683,50.119505666955256,8.31035977624234,66.074,739.6296317752041,48.3701171875
0.5146484375,0.02734375,0.63525390625,69.62105882352941,-171.70731707317074,45.36585365853659,75.0609756097561,38.98658983412513,1.9155663867372499
0.4873046875,-0.0224609375,0.65478515625,69.64752941176471,-148.1707317073171,74.48170731707317,78.17073170731707,36.64125315912744,-1.5762878416614488
0.3974609375,0.06298828125,0.66162109375,69.67929411764706,-119.84756097560977,126.58536585365854,80.60975609756099,30.880856465173032,4.66552774743744
0.3388671875,0.0830078125,0.689453125,69.61576470588236,-117.31707317073172,180.21341463414635,85.57926829268294,26.011331972259278,6.166929435659928
0.2177734375,0.02880859375,0.70263671875,69.66341176470588,-123.38414634146342,248.35365853658539,89.96951219512196,17.206564951763777,2.2427174416703974,66.074,739.6296317752041,48.4033203125
0.21923828125,-0.0009765625,0.80615234375,69.62105882352941,-121.76829268292684,288.20121951219517,95.60975609756099,15.213989502251525,-0.06697477259147065
0.25927734375,-0.06494140625,0.94921875,69.64752941176471,-128.8109756097561,295.94512195121956,97.92682926829269,15.243590903118825,-3.7759238219139286
0.36328125,-0.12841796875,1.06884765625,69.56811764705884,-138.9939024390244,274.57317073170736,90.45731707317074,18.647190953706563,-6.489798506866761
0.40869140625,-0.1435546875,1.1953125,69.65811764705882,-146.34146341463415,241.15853658536588,77.98780487804879,18.75092858329237,-6.48323255184941
0.30615234375,-0.15869140625,1.3046875,69.64223529411765,-152.22560975609758,201.37195121951223,63.07926829268293,13.112589746100548,-6.75324638738368,66.074,739.6296317752041,48.4140625
0.130859375,-0.18359375,1.400390625,69.59458823529411,-160.7317073170732,186.3719512195122,56.524390243902445,5.293459702629864,-7.436949500912158
-0.07568359375,-0.142578125,1.6005859375,69.62635294117648,-181.6768292682927,189.45121951219514,55.243902439024396,-2.6965488775939237,-5.084746773941173
-0.1845703125,-0.1513671875,1.73193359375,69.65282352941176,-194.57317073170734,200.85365853658539,58.75000000000001,-6.0600636600869375,-4.966850861450873
-0.2919921875,-0.2255859375,1.80517578125,69.61576470588236,-186.21951219512198,207.31707317073173,64.75609756097562,-9.11845139270868,-7.032635160453784
-0.302734375,-0.234375,1.85498046875,69.59988235294118,-148.50609756097563,202.34756097560978,72.10365853658537,-9.197147056736117,-7.108051903835853,66.09200000000001,739.3486399729043,48.404296875
-0.1669921875,-0.2568359375,1.849609375,69.62105882352941,-119.63414634146342,170.76219512195124,73.32317073170732,-5.110199733438224,-7.873891513709693
0.00244140625,-0.224609375,1.7412109375,69.58929411764706,-98.41463414634147,116.34146341463416,61.737804878048784,0.07967598187456612,-7.35033296392479
0.0185546875,-0.22509765625,1.6416015625,69.6104705882353,-102.28658536585367,66.34146341463415,49.39024390243903,0.6415720735144685,-7.807257303565374
-0.04736328125,-0.220703125,1.642578125,69.62635294117648,-134.45121951219514,10.182926829268293,35.609756097560975,-1.6369479140513234,-7.649506850165289
-0.056640625,-0.3291015625,1.62451171875,69.64752941176471,-164.93902439024393,-25.30487804878049,33.65853658536586,-1.9571540764174522,-11.445498541502054,66.09200000000001,739.0676504936887,48.4599609375
-0.04150390625,-0.31298828125,1.64453125,69.584,-182.16463414634148,-49.54268292682927,36.03658536585366,-1.420215086341632,-10.772348869056646
0.01123046875,-0.39306640625,1.71826171875,69.63164705882353,-189.78658536585368,-41.82926829268293,41.646341463414636,0.36504742333091644,-12.884903375678116
0.0283203125,-0.46923828125,1.77197265625,69.67929411764706,-193.35365853658539,-14.969512195121952,47.86585365853659,0.8851397661898097,-14.830310746909749
-0.09765625,-0.5244140625,1.70361328125,69.58929411764706,-173.2926829268293,18.658536585365855,56.737804878048784,-3.1358771877868437,-17.083244873246766
-0.13916015625,-0.52685546875,1.8046875,69.63164705882353,-167.7439024390244,27.164634146341466,62.865853658536594,-4.233347007278219,-16.228859767511853,66.09200000000001,739.0676504936887,48.482421875
-0.1015625,-0.6865234375,1.72119140625,69.62635294117648,-168.2317073170732,23.50609756097561,65.91463414634147,-3.137135771771956,-21.71109522492689
-0.11669921875,-0.646484375,1.798828125,69.58929411764706,-158.9939024390244,9.115853658536587,64.81707317073172,-3.493686669066184,-19.72976494612412
0.00244140625,-0.7353515625,1.681640625,69.66870588235295,-152.13414634146343,-28.59756097560976,60.1219512195122,0.07621387170918953,-23.618881974302603
0.04345703125,-0.697265625,1.4208984375,69.6369411764706,-127.8658536585366,-59.75609756097562,50.457317073170735,1.572744978069184,-26.127595173086583
0.046875,-0.64306640625,1.22314453125,69.5734117647059,-125.06097560975611,-91.73780487804879,46.21951219512196,1.9427830019895036,-27.715768078306873,66.09200000000001,739.0676504936887,48.515625
0.021484375,-0.65380859375,1.0,69.63164705882353,-138.44512195121953,-104.23780487804879,43.07926829268293,1.030186170222246,-33.17094925317243
-0.15625,-0.623046875,0.9326171875,69.62105882352941,-160.45731707317074,-97.16463414634147,42.46951219512196,-7.930903528184318,-33.3800739250097
-0.2451171875,-0.60986328125,1.0283203125,69.61576470588236,-195.3658536585366,-74.20731707317074,53.59756097560976,-11.586337794566145,-29.980835997064766
-0.15283203125,-0.68017578125,1.23828125,69.5575294117647,-217.19512195121953,-55.76219512195122,61.82926829268293,-6.174096551216248,-28.59717354345304
-0.09912109375,-0.77978515625,1.38134765625,69.63164705882353,-203.41463414634148,-38.75,62.10365853658537,-3.5756336476001067,-29.38223765936696,66.09200000000001,738.786663337509,48.4931640625
-0.169921875,-0.70849609375,1.42626953125,69.54164705882354,-168.01829268292684,-38.59756097560976,62.50000000000001,-6.090307114689897,-26.255254260685312
-0.1953125,-0.607421875,1.43505859375,69.62635294117648,-136.6158536585366,-50.426829268292686,62.19512195121952,-7.143940898012936,-22.75349974087497
-0.18115234375,-0.63134765625,1.29248046875,69.62105882352941,-114.51219512195122,-67.46951219512195,60.67073170731708,-7.177858717239692,-25.815335583039307
-0.185546875,-0.63330078125,1.07861328125,69.57870588235295,-95.48780487804879,-71.85975609756098,57.713414634146346,-8.437932696650618,-30.05557459609654
-0.25,-0.560546875,0.87646484375,69.75870588235294,-76.4329268292683,-60.79268292682927,54.72560975609757,-13.511734787596422,-31.592526277412745,66.11,738.786663337509,48.4501953125
-0.32763671875,-0.47509765625,0.8447265625,69.56811764705884,-82.16463414634147,-45.54878048780488,59.42073170731708,-18.67838131167165,-27.67103822309534
-0.2802734375,-0.396484375,0.94384765625,69.62635294117648,-105.85365853658537,-35.396341463414636,65.1829268292683,-15.310894644102023,-21.934306943947696
-0.19921875,-0.42919921875,1.1142578125,69.674,-123.29268292682927,-28.445121951219516,66.25,-9.472057570381823,-20.765511524725735
-0.17626953125,-0.42626953125,1.38818359375,69.65811764705882,-113.8719512195122,-30.60975609756098,66.09756097560977,-6.920968373483971,-16.94199443180906
-0.158203125,-0.4541015625,1.59375,69.67929411764706,-87.22560975609757,-34.93902439024391,64.32926829268293,-5.453228812187957,-15.829783376636215,66.11,738.786663337509,48.427734375
-0.17822265625,-0.4619140625,1.77978515625,69.61576470588236,-42.40853658536586,-27.195121951219516,60.335365853658544,-5.536157814073736,-14.479832226163591
-0.1630859375,-0.52978515625,1.83837890625,69.59988235294118,2.8658536585365857,-17.164634146341466,58.26219512195122,-4.8722733051198155,-16.01630049095534
-0.13037109375,-0.58984375,1.82373046875,69.66870588235295,67.25609756097562,2.530487804878049,60.97560975609757,-3.8910910007311204,-17.87989824563503
-0.177734375,-0.65576171875,1.6728515625,69.60517647058823,129.45121951219514,18.597560975609756,60.1829268292683,-5.649189335750022,-21.296253170432113
-0.193359375,-0.6015625,1.4716796875,69.6369411764706,188.07926829268294,28.689024390243905,59.024390243902445,-6.934192158212525,-22.061533974825853,66.11,738.786663337509,48.3388671875
-0.30224609375,-0.56005859375,1.1689453125,69.65811764705882,231.31097560975613,31.737804878048784,61.28048780487806,-13.125748394530179,-24.884683156042097
-0.31298828125,-0.5234375,0.9453125,69.63164705882353,246.89024390243904,43.23170731707317,64.75609756097562,-16.153907242362592,-27.728924220682543
-0.24267578125,-0.43798828125,0.82080078125,69.64752941176471,248.26219512195124,58.07926829268293,72.98780487804879,-14.619505511061917,-27.099468040233884
-0.19580078125,-0.45361328125,0.7578125,69.59988235294118,241.28048780487808,67.71341463414635,76.64634146341464,-12.49998359240647,-30.094440453169437
-0.13134765625,-0.45458984375,0.7373046875,69.5469411764706,234.78658536585368,69.02439024390245,81.5548780487805,-8.622635420699805,-31.257737529615657,66.11,738.786663337509,48.3056640625
-0.08984375,-0.46240234375,0.75537109375,69.62635294117648,233.2926829268293,64.84756097560977,80.57926829268294,-5.792395589978099,-31.294078827522736
-0.01953125,-0.4267578125,0.818359375,69.68458823529411,230.70121951219514,55.82317073170732,77.13414634146342,-1.2123005277367522,-27.53443945780621
-0.00634765625,-0.5556640625,0.83544921875,69.59458823529411,230.70121951219514,40.91463414634147,78.75,-0.36246995933429854,-33.62743883835751
0.02490234375,-0.60009765625,0.78466796875,69.65282352941176,239.32926829268294,31.981707317073173,77.43902439024392,1.4440618693107612,-37.39408806142352
0.0712890625,-0.533203125,0.7421875,69.5310588235294,258.4756097560976,30.853658536585368,75.88414634146342,4.460517281117821,-35.56968487449175,66.11,738.786663337509,48.2626953125
0.00439453125,-0.48828125,0.66357421875,69.58929411764706,262.6829268292683,38.59756097560976,73.47560975609757,0.3056161961959734,-36.346342395600274
-0.02783203125,-0.3974609375,0.60400390625,69.5575294117647,260.7317073170732,53.9329268292683,73.38414634146342,-2.204383155015468,-33.31876511524783
-0.03759765625,-0.32666015625,0.55859375,69.72694117647059,258.38414634146346,61.00609756097562,70.64024390243902,-3.3252659596223326,-30.26228128538303
-0.08935546875,-0.20751953125,0.6103515625,69.74282352941177,251.06707317073173,66.52439024390245,67.92682926829269,-7.891346495956351,-18.59365691770249
-0.14013671875,-0.2001953125,0.72705078125,69.59458823529411,230.5487804878049,62.926829268292686,69.81707317073172,-10.527234732777021,-15.129651161681192,66.128,738.786663337509,48.140625
-0.15380859375,-0.189453125,0.82177734375,69.584,216.64634146341464,61.06707317073171,70.51829268292684,-10.336103568990312,-12.767922797552533
-0.09130859375,-0.2099609375,0.9052734375,69.62105882352941,221.21951219512198,46.493902439024396,72.28658536585367,-5.611582008810967,-12.994121677329272
-0.052734375,-0.1728515625,0.80517578125,69.62635294117648,235.4268292682927,27.926829268292686,67.16463414634147,-3.6639501994656634,-12.090971575976424
-0.0830078125,0.01025390625,0.751953125,69.60517647058823,241.58536585365854,4.51219512195122,58.59756097560976,-6.298772811128638,0.7765411581635058
-0.15869140625,0.0849609375,0.71484375,69.66341176470588,222.43902439024393,-16.28048780487805,48.75000000000001,-12.43162744100184,6.6183109369709126,66.128,738.786663337509,48.1181640625
-0.19775390625,0.2041015625,0.73828125,69.6104705882353,196.6158536585366,-16.128048780487806,43.170731707317074,-14.476122868911187,14.95144949906094
-0.2568359375,0.2333984375,0.78564453125,69.55223529411765,184.45121951219514,-10.396341463414634,40.91463414634147,-17.399680719025955,15.768253963813008
-0.32373046875,0.26806640625,0.78564453125,69.59988235294118,185.5487804878049,0.426829268292683,44.237804878048784,-21.304837403875414,17.50907644632372
-0.36474609375,0.3818359375,0.70751953125,69.584,185.85365853658539,22.31707317073171,48.8109756097561,-24.402656613020085,25.626592219812874
-0.21923828125,0.4990234375,0.681640625,69.67929411764706,176.12804878048783,36.28048780487805,45.213414634146346,-14.54846499796079,34.873821856329734,66.128,738.786663337509,48.0185546875
-0.15576171875,0.56396484375,0.75830078125,69.57870588235295,144.9390243902439,39.054878048780495,44.390243902439025,-9.359482707322758,36.073773512551355
-0.09423828125,0.5703125,0.86767578125,69.56811764705884,113.14024390243904,35.57926829268293,39.96951219512196,-5.185954154573837,33.1623996951923
-0.06982421875,0.51025390625,0.98193359375,69.584,93.10975609756099,26.737804878048784,33.38414634146342,-3.6104772796544564,27.399204531688103
-0.099609375,0.4755859375,1.056640625,69.58929411764706,89.87804878048782,12.408536585365855,27.652439024390247,-4.913281094963543,24.13742375218526
-0.173828125,0.5234375,1.11865234375,69.56811764705884,91.52439024390245,6.585365853658537,25.396341463414636,-8.01146156338825,24.8143577131102,66.128,738.786663337509,47.99609375
-0.26953125,0.50927734375,1.1142578125,69.63164705882353,87.98780487804879,-0.12195121951219513,22.652439024390247,-12.407575314623209,23.952856459868247
-0.3095703125,0.51708984375,1.10498046875,69.66870588235295,80.09146341463415,-8.536585365853659,22.743902439024392,-14.238244300558291,24.25693683183626
-0.3623046875,0.490234375,1.06884765625,69.59458823529411,68.38414634146342,-16.493902439024392,23.170731707317074,-17.12436443006987,23.479180026669006
-0.35107421875,0.48486328125,1.04345703125,69.5734117647059,49.78658536585366,-24.207317073170735,22.378048780487806,-16.96805106824769,23.76921334688477
-0.333984375,0.47412109375,1.0546875,69.5575294117647,27.987804878048784,-38.23170731707317,19.451219512195124,-16.110048088040212,23.198165065503346,66.128,739.0676504936887,47.896484375
-0.28759765625,0.45556640625,1.12451171875,69.62105882352941,-6.189024390243903,-63.32317073170732,20.30487804878049,-13.335263017696725,21.42954534648845
-0.228515625,0.38134765625,1.1826171875,69.57870588235295,-29.05487804878049,-82.89634146341464,19.695121951219512,-10.420482265354929,17.56801406449997
-0.1435546875,0.31103515625,1.2265625,69.54164705882354,-40.88414634146342,-86.64634146341464,20.945121951219512,-6.472388405859038,14.136698134475878
-0.0546875,0.25341796875,1.35546875,69.63164705882353,-48.68902439024391,-70.0609756097561,18.170731707317074,-2.2710837798048105,10.581330344918234
-0.060546875,0.19970703125,1.49951171875,69.62635294117648,-57.957317073170735,-56.615853658536594,17.743902439024392,-2.2920015932536604,7.579984023977696,66.128,739.0676504936887,47.86328125
-0.00341796875,0.091796875,1.65771484375,69.60517647058823,-64.81707317073172,-54.024390243902445,15.609756097560977,-0.1179547481227142,3.169541599754641
0.02197265625,0.05615234375,1.740234375,69.59988235294118,-59.66463414634147,-60.85365853658537,9.51219512195122,0.7230168667647072,1.8479811188251547
-0.06884765625,0.02880859375,1.81103515625,69.62635294117648,-52.40853658536586,-75.27439024390245,4.817073170731708,-2.1768121001358156,0.9106838690953124
-0.041015625,-0.00048828125,1.833984375,69.60517647058823,-47.40853658536586,-96.40243902439025,1.1890243902439026,-1.2811616492502018,-0.015250653635674913
0.052734375,-0.07080078125,1.755859375,69.57870588235295,-39.93902439024391,-114.08536585365854,-5.426829268292684,1.7188723044621295,-2.3080232275235084,66.128,738.786663337509,47.86328125
0.130859375,-0.064453125,1.681640625,69.5575294117647,-28.993902439024392,-122.13414634146342,-12.865853658536587,4.446338163203778,-2.1883219943891694
0.193359375,-0.0595703125,1.64111328125,69.55223529411765,-26.402439024390247,-135.88414634146343,-20.335365853658537,6.715345324902429,-2.064582353558498
0.22900390625,-0.10498046875,1.548828125,69.5734117647059,-28.292682926829272,-143.38414634146343,-31.981707317073173,8.39162330058642,-3.8360328312529215
0.16796875,-0.10791015625,1.5341796875,69.55223529411765,-29.451219512195124,-134.57317073170734,-39.29878048780488,6.232831290872837,-3.999586286113295
0.12451171875,-0.15966796875,1.47900390625,69.65811764705882,-25.731707317073173,-122.22560975609757,-44.237804878048784,4.7844971797680325,-6.140031364178112,66.128,739.0676504936887,47.8193359375
0.11279296875,-0.15771484375,1.45458984375,69.62635294117648,-19.29878048780488,-109.51219512195122,-47.65243902439025,4.408268678764354,-6.169780089405975
0.0595703125,-0.16552734375,1.4677734375,69.60517647058823,-19.847560975609756,-100.06097560975611,-50.487804878048784,2.3094784389348093,-6.429066240025335
-0.044921875,-0.2080078125,1.505859375,69.59988235294118,-23.384146341463417,-90.51829268292684,-50.94512195121952,-1.6926433915300734,-7.861175777552679
-0.06201171875,-0.23828125,1.5009765625,69.64752941176471,-15.914634146341465,-88.53658536585367,-50.09146341463415,-2.336560116628289,-9.012914486251121
-0.05322265625,-0.2783203125,1.4111328125,69.53635294117647,4.390243902439025,-92.25609756097562,-50.670731707317074,-2.1191721096946163,-11.14961892349094,66.128,739.0676504936887,47.796875
-0.04296875,-0.2724609375,1.34228515625,69.56811764705884,12.957317073170733,-99.39024390243904,-51.951219512195124,-1.7968864742505235,-11.468453338552482
0.0078125,-0.25390625,1.20849609375,69.674,11.341463414634147,-116.64634146341464,-54.57317073170732,0.36247807657924463,-11.865081113924129
0.01220703125,-0.25830078125,1.12353515625,69.63164705882353,4.725609756097561,-128.44512195121953,-58.62804878048781,0.6066604884339767,-12.946586679663415
0.11376953125,-0.26953125,1.11865234375,69.584,-7.77439024390244,-134.51219512195124,-63.17073170731708,5.646644204466222,-13.479822262760116
0.19287109375,-0.32958984375,1.150390625,69.5575294117647,-24.420731707317074,-135.7926829268293,-70.97560975609757,9.15577642252753,-15.778109115555896,66.128,739.0676504936887,47.7861328125
0.2080078125,-0.3740234375,1.1640625,69.65282352941176,-27.500000000000004,-133.71951219512195,-80.3048780487805,9.655013578445642,-17.552090430933298
0.126953125,-0.37548828125,1.169921875,69.61576470588236,-18.170731707317074,-126.73780487804879,-87.77439024390245,5.899036783070816,-17.696762845683462
0.07275390625,-0.32958984375,1.1220703125,69.63164705882353,-4.664634146341464,-119.20731707317074,-89.96951219512196,3.5598259225554947,-16.336820144062724
-0.00439453125,-0.28369140625,0.986328125,69.5469411764706,11.219512195121952,-106.40243902439025,-87.37804878048782,-0.24533050275025187,-16.04634171118473
0.0166015625,-0.24560546875,0.90673828125,69.64223529411765,16.463414634146343,-95.2439024390244,-83.20121951219512,1.0124414828337587,-15.153441758838264,66.128,739.3486399729043,47.763671875
0.0478515625,-0.23095703125,0.87109375,69.59458823529411,12.073170731707318,-88.96341463414635,-80.97560975609757,3.039444296127563,-14.828060266468627
0.0390625,-0.26708984375,0.8486328125,69.56811764705884,3.2012195121951224,-90.03048780487806,-79.60365853658537,2.5140525320639413,-17.452974868651754
-0.00537109375,-0.2890625,0.84033203125,69.56282352941176,-3.0182926829268295,-98.9939024390244,-81.34146341463415,-0.34629392213462246,-18.982142613427182
-0.009765625,-0.265625,0.837890625,69.6369411764706,-0.9451219512195123,-109.02439024390245,-81.85975609756099,-0.6365354307852701,-17.588343706976527
0.0048828125,-0.27001953125,0.8046875,69.56282352941176,5.365853658536586,-114.54268292682927,-80.33536585365854,0.32960306012811535,-18.54928464370641,66.128,739.6296317752041,47.7080078125
0.1240234375,-0.2822265625,0.70458984375,69.65811764705882,14.207317073170733,-105.76219512195122,-79.0548780487805,9.280187334394883,-21.52871989976474
0.2548828125,-0.26220703125,0.64208984375,69.65811764705882,21.158536585365855,-85.64024390243902,-80.54878048780489,20.178220779938627,-20.784468769914238
0.27001953125,-0.25732421875,0.5400390625,69.59988235294118,30.182926829268297,-59.54268292682927,-85.88414634146342,24.293342637084326,-23.083086031889913
0.216796875,-0.2021484375,0.416015625,69.6369411764706,42.957317073170735,-29.451219512195124,-91.25000000000001,25.113458658648913,-23.31186145431841
0.17578125,-0.11328125,0.3154296875,69.57870588235295,47.774390243902445,-9.786585365853659,-95.45731707317074,27.676034514476598,-17.417136708089522,66.128,739.6296317752041,47.685546875
0.08154296875,-0.03955078125,0.24462890625,69.64752941176471,45.457317073170735,-11.250000000000002,-97.10365853658537,18.21432641670295,-8.720065657997507
0.0576171875,-0.00830078125,0.18603515625,69.57870588235295,37.53048780487805,-23.993902439024392,-96.15853658536587,17.19224755262024,-2.440586243511697
0.068359375,0.03955078125,0.138671875,69.494,21.03658536585366,-45.36585365853659,-97.40853658536587,25.36346012016768,14.349509516236944
0.02197265625,0.04833984375,0.0927734375,69.61576470588236,7.682926829268293,-56.554878048780495,-97.07317073170732,11.861959021211037,26.886195413833597
0.0361328125,0.0537109375,0.0537109375,69.62635294117648,-1.7987804878048783,-57.43902439024391,-94.20731707317074,25.439966517437266,39.683244476812895,66.128,739.6296317752041,47.6640625
0.068359375,0.0810546875,0.03759765625,69.62105882352941,-6.829268292682928,-48.10975609756098,-92.25609756097562,37.41862754422868,46.09415829032379
0.076171875,0.095703125,0.01171875,69.61576470588236,-9.634146341463415,-29.35975609756098,-91.46341463414635,38.30936132965546,51.156117173416256
0.03759765625,0.12890625,-0.00048828125,69.61576470588236,-12.74390243902439,-11.432926829268293,-91.06707317073172,16.26009422170967,73.73849656050473
-0.0048828125,0.18798828125,0.0048828125,69.5734117647059,-15.914634146341465,-3.628048780487805,-89.81707317073172,-1.4873661130803408,87.89631028507887
-0.03125,0.22021484375,-0.021484375,69.57870588235295,-19.35975609756098,2.073170731707317,-87.8658536585366,-8.0390723249329,80.2290263622388,66.128,739.9106259006205,47.6083984375
-0.052734375,0.23876953125,-0.041015625,69.63164705882353,-21.615853658536587,5.3048780487804885,-87.01219512195122,-12.280059851383852,74.36850501815773
-0.04736328125,0.3046875,-0.01904296875,69.56811764705884,-28.50609756097561,10.609756097560977,-85.1219512195122,-8.818901382254223,80.48884869675014
-0.08349609375,0.31396484375,-0.001953125,69.5575294117647,-37.19512195121951,13.29268292682927,-83.9329268292683,-14.892312280148456,75.10351958330841
-0.109375,0.3056640625,-0.00830078125,69.67929411764706,-41.646341463414636,11.79878048780488,-82.77439024390245,-19.681906614765204,70.25914606954444
-0.1015625,0.33642578125,0.0029296875,69.57870588235295,-42.22560975609756,9.847560975609756,-80.82317073170732,-16.79777074771748,73.19503453006661,66.128,739.9106259006205,47.619140625
-0.134765625,0.36328125,0.02587890625,69.59458823529411,-48.65853658536586,9.725609756097562,-79.0548780487805,-20.305987810531665,69.30616436285884
-0.1982421875,0.373046875,0.04052734375,69.62105882352941,-55.76219512195122,6.067073170731708,-76.58536585365854,-27.847723512082236,61.524389944239196
-0.23681640625,0.38037109375,0.0419921875,69.57870588235295,-61.06707317073171,5.182926829268293,-71.58536585365854,-31.750606209455544,57.694620608575896
-0.2412109375,0.42041015625,0.044921875,69.584,-65.27439024390245,9.786585365853659,-65.1219512195122,-29.704924373630497,59.731460447792806
-0.2265625,0.4404296875,0.08642578125,69.58929411764706,-71.64634146341464,16.128048780487806,-58.32317073170732,-26.783980765341155,61.164168160409766,66.128,740.1916223492179,47.59765625
-0.2470703125,0.41748046875,0.11767578125,69.60517647058823,-80.79268292682927,23.932926829268293,-54.84756097560976,-29.66656890931841,56.75474067318983
-0.32568359375,0.40576171875,0.1611328125,69.51517647058824,-87.25609756097562,31.951219512195124,-49.72560975609756,-36.72220294495905,48.155190943832864
-0.38330078125,0.41064453125,0.23681640625,69.55223529411765,-89.96951219512196,37.926829268292686,-42.926829268292686,-38.95860765834771,42.34652801600793
-0.40869140625,0.42138671875,0.3125,69.58929411764706,-91.73780487804879,42.86585365853659,-36.463414634146346,-37.91959316338362,39.31956805986909
-0.40869140625,0.4345703125,0.37451171875,69.55223529411765,-86.6158536585366,57.22560975609757,-28.384146341463417,-35.46612168481164,38.09461455532918,66.128,740.1916223492179,47.59765625
-0.41552734375,0.443359375,0.3955078125,69.5575294117647,-74.84756097560977,68.10975609756098,-21.128048780487806,-34.96834298914427,37.698881490073006
-0.35107421875,0.51513671875,0.39306640625,69.68988235294117,-59.72560975609757,75.39634146341464,-12.896341463414636,-28.449058351791106,44.346490376538675
-0.33837890625,0.5009765625,0.33642578125,69.6104705882353,-55.1219512195122,77.8048780487805,-9.542682926829269,-29.280852727807773,46.394756254736414
-0.32275390625,0.52392578125,0.32373046875,69.61576470588236,-60.335365853658544,84.51219512195122,-7.378048780487806,-27.657196471691016,48.89475808799667
-0.3935546875,0.4833984375,0.38720703125,69.64752941176471,-76.70731707317074,92.98780487804879,-6.067073170731708,-32.432873797618626,41.204188213281824,66.128,740.1916223492179,47.619140625
-0.36865234375,0.50830078125,0.49365234375,69.56811764705884,-86.3719512195122,97.53048780487806,-2.408536585365854,-27.48711523030802,39.522976837110654
-0.296875,0.53076171875,0.66064453125,69.6104705882353,-90.03048780487806,109.54268292682927,0.030487804878048783,-19.30630964653535,36.23432605296899
-0.29345703125,0.51611328125,0.7666015625,69.584,-85.3658536585366,118.9939024390244,1.0975609756097562,-17.616885383458786,32.1598155996343
-0.30029296875,0.443359375,0.83740234375,69.56282352941176,-69.60365853658537,126.37195121951221,3.932926829268293,-17.58457311848316,26.490335720490094
-0.2421875,0.4306640625,0.88037109375,69.58929411764706,-50.701219512195124,133.8109756097561,7.77439024390244,-13.880511827018355,25.251508886204263,66.128,740.1916223492179,47.630859375
-0.2646484375,0.375,0.83935546875,69.63164705882353,-24.939024390243905,144.32926829268294,6.097560975609756,-16.059800422461066,23.078530892481208
-0.26171875,0.37744140625,0.74755859375,69.64223529411765,-7.286585365853659,148.01829268292684,3.3841463414634148,-17.355192020913016,25.47959048387058
-0.205078125,0.4375,0.6552734375,69.59458823529411,-1.4634146341463417,143.44512195121953,-2.408536585365854,-14.589446347428343,32.504625409237065
-0.2841796875,0.46044921875,0.634765625,69.61576470588236,-14.939024390243905,137.9268292682927,-8.445121951219512,-19.920016024377336,33.50712299903805
-0.3369140625,0.4296875,0.65576171875,69.6369411764706,-36.61585365853659,126.82926829268294,-9.146341463414634,-23.255022580580285,30.234757932354647,66.128,740.4726211210289,47.6640625
-0.27197265625,0.4306640625,0.76025390625,69.63164705882353,-48.04878048780488,126.34146341463416,-7.896341463414635,-17.28963107160851,28.074188005906077
-0.30322265625,0.40185546875,0.92041015625,69.65282352941176,-49.268292682926834,146.7378048780488,-9.115853658536587,-16.800155506728533,22.522860689813506
-0.42578125,0.36376953125,1.04931640625,69.61576470588236,-44.176829268292686,150.27439024390245,-9.420731707317074,-20.976102707487588,17.808812921857097
-0.4599609375,0.3544921875,1.15283203125,69.59458823529411,-36.79878048780488,140.76219512195124,-8.445121951219512,-20.874899575217597,15.939534342222114
-0.4921875,0.3505859375,1.20947265625,69.64223529411765,-25.121951219512198,131.3719512195122,-9.207317073170733,-21.348276430118975,15.028739035620871,66.128,740.4726211210289,47.697265625
-0.46630859375,0.37841796875,1.22412109375,69.59458823529411,-9.756097560975611,122.37804878048782,-10.792682926829269,-19.99848526105791,16.113167772524914
-0.46142578125,0.36083984375,1.20654296875,69.59458823529411,-4.451219512195122,119.66463414634147,-14.329268292682928,-20.12289649120246,15.60708793511106
-0.48583984375,0.39208984375,1.23779296875,69.59458823529411,-7.591463414634147,125.57926829268294,-16.82926829268293,-20.514889300471552,16.428948252934962
-0.5556640625,0.3447265625,1.2412109375,69.59988235294118,-10.487804878048781,126.21951219512196,-19.115853658536587,-23.33302877116215,14.22436196536295
-0.591796875,0.33642578125,1.2705078125,69.6104705882353,-8.810975609756099,120.76219512195124,-22.073170731707318,-24.24093800848825,13.497576315275653,66.128,740.4726211210289,47.7080078125
-0.6337890625,0.3310546875,1.2880859375,69.59458823529411,-8.567073170731708,109.90853658536587,-26.28048780487805,-25.48021086468787,12.985896676866336
-0.69970703125,0.34130859375,1.30810546875,69.62105882352941,-8.353658536585366,108.07926829268294,-29.84756097560976,-27.364880564517634,12.956685046216625
-0.876953125,0.41015625,1.4384765625,69.57870588235295,-13.26219512195122,104.0548780487805,-30.487804878048784,-30.38197345206975,13.68289573400928
-0.9921875,0.37646484375,1.59912109375,69.5734117647059,-19.603658536585368,98.01829268292684,-27.500000000000004,-31.12977427319748,11.312296896214912
-1.07568359375,0.337890625,1.75732421875,69.63164705882353,-20.670731707317074,90.33536585365854,-24.05487804878049,-31.010241858988113,9.313155192999563,66.128,740.1916223492179,47.73046875
-1.15283203125,0.2919921875,1.85986328125,69.5734117647059,-5.365853658536586,86.25000000000001,-21.00609756097561,-31.48109929413406,7.6006999281711405
-1.26611328125,0.29443359375,1.87548828125,69.59458823529411,17.77439024390244,87.43902439024392,-19.29878048780488,-33.699965875650406,7.413456452734156
-1.3662109375,0.3359375,1.84228515625,69.59458823529411,38.26219512195122,89.17682926829269,-15.640243902439027,-36.11280597902893,8.332753599482652
-1.45068359375,0.3876953125,1.728515625,69.59458823529411,50.335365853658544,77.98780487804879,-10.51829268292683,-39.314709161446196,9.748527706498
-1.5166015625,0.44140625,1.61181640625,69.66870588235295,49.146341463414636,68.32317073170732,-6.128048780487806,-42.22411019146908,11.279466900145806,66.128,740.1916223492179,47.7080078125
-1.5927734375,0.48974609375,1.50048828125,69.584,36.3109756097561,55.94512195121952,-0.030487804878048783,-45.25986690545616,12.615375668246253
-1.61669921875,0.52001953125,1.53173828125,69.584,17.195121951219512,44.237804878048784,6.067073170731708,-44.983973008614505,13.142921151105945
-1.56591796875,0.4765625,1.6201171875,69.57870588235295,-3.3841463414634148,26.646341463414636,10.76219512195122,-42.83859296293161,11.942364244428772
-1.5556640625,0.4013671875,1.76123046875,69.584,-15.182926829268293,4.969512195121951,10.853658536585368,-40.73512053594786,9.692695331388792
-1.62646484375,0.36376953125,1.82763671875,69.62635294117648,-9.603658536585368,-16.28048780487805,8.048780487804878,-41.11468757778462,8.457136936588588,66.128,740.1916223492179,47.697265625
-1.69921875,0.36474609375,1.7919921875,69.54164705882354,7.652439024390245,-45.73170731707317,8.932926829268293,-42.89751666838157,8.401761347896954
-1.7490234375,0.3583984375,1.7021484375,69.5575294117647,22.34756097560976,-66.28048780487805,13.04878048780488,-45.1568938052348,8.354184020088582
-1.7841796875,0.37646484375,1.56005859375,69.60517647058823,31.432926829268297,-78.65853658536587,20.762195121951223,-48.02916060595609,9.025650042725289
-1.7939453125,0.38037109375,1.42822265625,69.61576470588236,32.28658536585366,-81.00609756097562,29.176829268292686,-50.51537356835137,9.418477470358985
-1.7978515625,0.427734375,1.328125,69.6369411764706,25.426829268292686,-86.98170731707317,40.0,-52.18513605132246,10.833245227260065,66.128,739.9106259006205,47.7197265625
-1.7041015625,0.384765625,1.29833984375,69.58929411764706,12.835365853658537,-84.84756097560977,52.25609756097561,-51.52781869150912,10.181778172689175
-1.5986328125,0.34814453125,1.29833984375,69.59458823529411,5.274390243902439,-80.21341463414635,61.646341463414636,-49.941281913178216,9.595009784542183
-1.4794921875,0.27880859375,1.3115234375,69.64223529411765,6.189024390243903,-87.5609756097561,67.92682926829269,-47.81467904498602,8.026795069104688
-1.37353515625,0.19091796875,1.26513671875,69.62635294117648,15.152439024390246,-110.73170731707319,66.73780487804879,-47.03083276386243,5.8374953576216
-1.2294921875,0.201171875,1.103515625,69.5734117647059,33.53658536585366,-154.90853658536588,59.29878048780488,-47.6248627471351,6.942624044837325,66.128,739.9106259006205,47.697265625
-1.15478515625,0.21142578125,0.93212890625,69.58929411764706,40.518292682926834,-200.21341463414635,48.78048780487805,-50.385726469199206,8.10812561660843
-1.150390625,0.26611328125,0.88671875,69.6104705882353,24.23780487804878,-237.10365853658539,39.29878048780488,-51.17424184396011,10.382260498968023
-1.1923828125,0.220703125,0.87548828125,69.584,-1.128048780487805,-249.4817073170732,36.98170731707317,-52.866803915265194,8.48575031980131
-1.24169921875,0.10498046875,0.8916015625,69.59458823529411,1.981707317073171,-228.47560975609758,44.48170731707317,-54.132702632211576,3.928635764598946
-1.25439453125,0.01220703125,0.830078125,69.61576470588236,34.69512195121951,-188.2926829268293,62.896341463414636,-56.5031048200324,0.46497057457430513,66.128,739.9106259006205,47.65234375
-1.10205078125,-0.03271484375,0.62939453125,69.61576470588236,72.6829268292683,-164.90853658536588,78.53658536585367,-60.235491583878854,-1.4766251768748753
-0.86328125,-0.0517578125,0.23388671875,69.5575294117647,108.26219512195122,-168.14024390243904,87.31707317073172,-74.49161565751152,-3.3119288842513894
-0.6484375,-0.0380859375,-0.123046875,69.54164705882354,122.16463414634147,-193.8719512195122,88.26219512195122,-78.76495193205113,-3.302601287325428
-0.48583984375,-0.033203125,-0.4716796875,69.57870588235295,119.75609756097562,-218.2926829268293,84.51219512195122,-45.77647493963138,-2.807202629808877
-0.33837890625,-0.00048828125,-0.7470703125,69.584,108.68902439024392,-209.2378048780488,82.19512195121952,-24.367725242080287,-0.034112187410306756,66.128,739.9106259006205,47.6416015625
-0.2568359375,0.06298828125,-0.94189453125,69.5310588235294,86.52439024390245,-177.83536585365854,86.79878048780489,-15.220191836046967,3.6915163953201877
-0.11083984375,0.07958984375,-1.0185546875,69.56282352941176,60.487804878048784,-145.82317073170734,95.91463414634147,-6.191802306560424,4.441895123654747
0.15966796875,0.05859375,-1.04931640625,69.62105882352941,30.030487804878053,-116.28048780487806,106.21951219512196,8.638721099573967,3.1597767801151395
0.31005859375,0.0126953125,-1.029296875,69.57870588235295,5.853658536585367,-105.3658536585366,107.89634146341464,16.762852154176194,0.6766191015701717
0.4951171875,-0.03076171875,-0.92578125,69.584,-23.323170731707318,-89.84756097560977,106.92073170731709,28.125178061425675,-1.678326425217831,66.128,739.9106259006205,47.5859375
0.6025390625,-0.1142578125,-0.81103515625,69.584,-45.88414634146342,-73.26219512195122,102.19512195121952,36.340486902763885,-6.4519412055329255
0.66796875,-0.201171875,-0.68115234375,69.54164705882354,-58.50609756097561,-48.71951219512196,92.01219512195122,43.24328606929548,-11.907400696319081
0.6591796875,-0.21435546875,-0.572265625,69.58929411764706,-60.1829268292683,-28.07926829268293,82.13414634146342,47.16786020290771,-13.796498394298116
0.63134765625,-0.21044921875,-0.47705078125,69.53635294117647,-62.04268292682927,-10.579268292682928,73.62804878048782,50.44788706319888,-14.893030549915178
0.5703125,-0.2177734375,-0.396484375,69.53635294117647,-69.60365853658537,4.359756097560976,66.3719512195122,51.579583811566316,-17.407654644218525,66.128,739.9106259006205,47.5751953125
0.54052734375,-0.21435546875,-0.298828125,69.56811764705884,-80.60975609756099,12.957317073170733,62.16463414634147,55.76979067045461,-19.139879871363387
0.51708984375,-0.201171875,-0.1494140625,69.6369411764706,-95.3658536585366,20.27439024390244,60.94512195121952,64.14454896566109,-20.493530929530948
0.5029296875,-0.24951171875,0.02978515625,69.56282352941176,-112.07317073170732,31.34146341463415,59.237804878048784,63.451504865899935,-26.346856177850807
0.4990234375,-0.2744140625,0.1650390625,69.53635294117647,-116.00609756097562,40.274390243902445,55.73170731707317,57.311966833137504,-27.568621466540826
0.375,-0.28125,0.302734375,69.5575294117647,-109.78658536585367,41.58536585365854,50.1219512195122,42.22405140037712,-30.266559952729786,66.146,739.9106259006205,47.5087890625
0.31103515625,-0.2373046875,0.4033203125,69.58929411764706,-103.38414634146342,34.207317073170735,47.987804878048784,33.610818118411515,-24.98182827896683
0.26416015625,-0.2578125,0.4609375,69.5575294117647,-100.00000000000001,25.731707317073173,49.176829268292686,26.57292431888034,-25.886332363269492
0.353515625,-0.29296875,0.4638671875,69.58929411764706,-88.59756097560977,22.5609756097561,46.82926829268293,32.795770192499255,-26.67172220324549
0.36572265625,-0.2958984375,0.46826171875,69.50988235294118,-80.54878048780489,27.77439024390244,41.09756097560976,33.434674808609635,-26.47395650937234
0.3916015625,-0.28759765625,0.5078125,69.56282352941176,-87.16463414634147,32.957317073170735,35.03048780487805,33.86213216095191,-24.15539558583398,66.146,739.9106259006205,47.5087890625
0.3984375,-0.33544921875,0.5712890625,69.52576470588235,-101.12804878048782,41.82926829268293,27.926829268292686,31.023592135456475,-25.71619285961669
0.3837890625,-0.36376953125,0.68359375,69.5310588235294,-115.76219512195122,48.170731707317074,19.23780487804878,26.364070112712884,-24.89200629647359
0.31640625,-0.40478515625,0.78955078125,69.56282352941176,-118.07926829268294,58.32317073170732,13.353658536585368,19.62664074476795,-25.449193246862034
0.27685546875,-0.38427734375,0.88916015625,69.58929411764706,-114.63414634146342,67.31707317073172,9.451219512195122,15.950837039281655,-22.423007511580398
0.21142578125,-0.37646484375,0.98046875,69.57870588235295,-103.14024390243904,74.54268292682927,6.829268292682928,11.381983563324711,-20.572961798570663,66.146,739.9106259006205,47.51953125
0.22265625,-0.37109375,1.044921875,69.57870588235295,-94.60365853658537,69.66463414634147,5.7926829268292686,11.35385032465877,-19.154272464654984
0.306640625,-0.3759765625,1.1015625,69.59988235294118,-90.51829268292684,69.93902439024392,2.682926829268293,14.759024482121347,-18.201388025007383
0.408203125,-0.42431640625,1.15869140625,69.62635294117648,-92.8658536585366,67.31707317073172,-2.439024390243903,18.30486276245374,-19.054697913544807
0.51171875,-0.48046875,1.20458984375,69.56811764705884,-93.14024390243904,59.35975609756098,-15.091463414634148,21.53310447553814,-20.158855055389402
0.49951171875,-0.46923828125,1.25439453125,69.5310588235294,-92.92682926829269,54.48170731707317,-27.31707317073171,20.45392274951442,-19.16410637995621,66.146,739.9106259006205,47.51953125
0.4267578125,-0.50439453125,1.298828125,69.60517647058823,-88.8109756097561,53.8109756097561,-38.75,17.029106494340063,-20.251080442187288
0.36279296875,-0.50244140625,1.33642578125,69.5469411764706,-85.54878048780489,52.6219512195122,-46.737804878048784,14.257149959152061,-19.942174847127546
0.2783203125,-0.5078125,1.40625,69.62635294117648,-83.9939024390244,62.6219512195122,-53.32317073170732,10.544986280192953,-19.506171089356663
0.1669921875,-0.51611328125,1.48095703125,69.64223529411765,-79.60365853658537,71.79878048780489,-56.707317073170735,6.077887521975284,-19.101235632780664
0.123046875,-0.49853515625,1.49853515625,69.65282352941176,-71.58536585365854,75.73170731707317,-59.024390243902445,4.455084003751988,-18.34375437649426,66.146,739.9106259006205,47.552734375
0.08740234375,-0.4677734375,1.50390625,69.50458823529412,-59.29878048780488,80.70121951219512,-63.018292682926834,3.1763389494800243,-17.25035306090185
-0.00732421875,-0.44580078125,1.44287109375,69.5734117647059,-46.09756097560976,84.75609756097562,-66.5548780487805,-0.27787822396627027,-17.169259356804947
-0.12353515625,-0.400390625,1.3525390625,69.54164705882354,-33.04878048780488,81.76829268292684,-68.71951219512195,-5.005131524488063,-16.425610958973042
-0.265625,-0.3310546875,1.26171875,69.5310588235294,-31.189024390243905,68.38414634146342,-69.66463414634147,-11.509962211123376,-14.399965032565202
-0.32470703125,-0.3017578125,1.22021484375,69.6104705882353,-43.90243902439025,52.25609756097561,-67.83536585365854,-14.484259751264739,-13.440578567338816,66.146,739.9106259006205,47.51953125
-0.33544921875,-0.27734375,1.25,69.63164705882353,-61.28048780487806,35.487804878048784,-68.01829268292684,-14.680866760316054,-12.095145356192809
-0.42236328125,-0.263671875,1.34375,69.52576470588235,-72.95731707317074,30.64024390243903,-67.53048780487805,-17.141601829057002,-10.602599189234843
-0.5517578125,-0.30517578125,1.52294921875,69.52576470588235,-72.40853658536587,32.53048780487805,-61.615853658536594,-19.55675612804259,-10.669531454105
-0.60546875,-0.22998046875,1.50927734375,69.56282352941176,-50.274390243902445,42.31707317073171,-53.07926829268293,-21.632629023092235,-8.049527493901808
-0.62255859375,-0.15673828125,1.37890625,69.58929411764706,-30.396341463414636,49.54268292682927,-46.951219512195124,-24.160932055831015,-5.914688897728879,66.146,739.9106259006205,47.552734375
-0.63525390625,-0.12890625,1.271484375,69.55223529411765,-6.829268292682928,37.5609756097561,-40.243902439024396,-26.430499360431252,-5.182159368669564
-0.6611328125,-0.087890625,1.12890625,69.49929411764707,2.0426829268292686,32.743902439024396,-37.65243902439025,-30.27951408775479,-3.843450935484683
-0.7099609375,-0.05419921875,1.01513671875,69.56811764705884,-6.981707317073171,12.103658536585368,-34.84756097560976,-34.92967823315158,-2.5052360804074327
-0.7490234375,0.00439453125,0.96484375,69.57870588235295,-26.79878048780488,-2.164634146341464,-31.52439024390244,-37.822466280706344,0.20613644794102365
-0.80078125,0.0263671875,0.982421875,69.5204705882353,-52.53048780487806,-17.896341463414636,-26.676829268292686,-39.17369632072075,1.1917811137030276,66.146,739.9106259006205,47.6416015625
-0.84130859375,0.0244140625,1.06591796875,69.57870588235295,-74.17682926829269,-24.481707317073173,-18.231707317073173,-38.27604793741769,1.030000997074367
-0.912109375,0.0078125,1.20068359375,69.5734117647059,-82.6219512195122,-22.28658536585366,-8.658536585365855,-37.221841308723675,0.29686104826097826
-0.94775390625,-0.02099609375,1.3505859375,69.54164705882354,-81.82926829268294,-12.713414634146343,4.664634146341464,-35.05544153414665,-0.7290681410085729
-0.962890625,-0.0625,1.4931640625,69.56282352941176,-65.76219512195122,-1.3109756097560976,21.06707317073171,-32.79375421349757,-2.014684935958091
-0.9501953125,-0.076171875,1.5341796875,69.50458823529412,-44.268292682926834,7.591463414634147,34.420731707317074,-31.74046913057458,-2.4170118626010346,66.146,739.9106259006205,47.697265625
-0.87060546875,-0.0771484375,1.447265625,69.5310588235294,-12.408536585365855,15.975609756097562,48.44512195121952,-30.99319996995307,-2.6153676448949295
-0.78125,-0.04931640625,1.36083984375,69.56282352941176,5.0,14.390243902439027,56.28048780487806,-29.84364318930137,-1.8001397690718242
-0.71484375,-0.05029296875,1.21875,69.6104705882353,8.445121951219512,6.890243902439025,60.274390243902445,-30.371995627692904,-2.038580677780797
-0.685546875,-0.03173828125,1.1328125,69.55223529411765,-4.298780487804878,-6.890243902439025,62.560975609756106,-31.171213211542756,-1.3731006151482248
-0.681640625,-0.07275390625,1.125,69.584,-24.81707317073171,-27.225609756097562,65.21341463414635,-31.158824690347195,-3.165782873303401,66.146,739.6296317752041,47.7314453125
-0.611328125,-0.0947265625,1.20947265625,69.53635294117647,-44.66463414634147,-48.78048780487805,69.39024390243902,-26.743854579127646,-3.9984132171447433
-0.537109375,-0.1826171875,1.3447265625,69.57870588235295,-54.207317073170735,-60.426829268292686,73.71951219512195,-21.59297049356437,-7.1878914040701
-0.470703125,-0.26220703125,1.4951171875,69.57870588235295,-49.87804878048781,-60.67073170731708,78.47560975609757,-17.228365494381165,-9.496581674112964
-0.44189453125,-0.318359375,1.57666015625,69.52576470588235,-33.68902439024391,-59.69512195121952,83.68902439024392,-15.361757012129656,-11.00263442355613
-0.39453125,-0.38916015625,1.6171875,69.52576470588235,-8.628048780487806,-53.17073170731708,93.44512195121952,-13.343426991454223,-13.158484951315238,66.146,739.6296317752041,47.7646484375
-0.240234375,-0.4501953125,1.59228515625,69.64223529411765,11.49390243902439,-42.37804878048781,99.35975609756099,-8.260634951839604,-15.61946837632797
-0.0576171875,-0.50244140625,1.5595703125,69.56811764705884,29.87804878048781,-23.50609756097561,102.22560975609757,-2.013943741176555,-17.8458033641446
0.0498046875,-0.5634765625,1.4833984375,69.53635294117647,40.487804878048784,-12.042682926829269,100.1219512195122,1.7977299067517334,-20.788827647640055
0.166015625,-0.5654296875,1.39453125,69.6104705882353,48.84146341463415,-9.695121951219512,95.0609756097561,6.295635333500476,-21.930662211694923
0.23486328125,-0.56591796875,1.3173828125,69.55223529411765,43.23170731707317,-21.28048780487805,84.26829268292684,9.302754270525275,-22.92394900896673,66.146,739.6296317752041,47.7314453125
0.3046875,-0.5908203125,1.28564453125,69.59458823529411,29.573170731707318,-34.11585365853659,74.26829268292684,12.152587266844483,-24.09256043412206
0.39892578125,-0.65185546875,1.29638671875,69.6104705882353,12.195121951219512,-47.28658536585366,60.91463414634147,15.372145953895297,-25.66826590118232
0.47021484375,-0.70166015625,1.34326171875,69.53635294117647,6.036585365853659,-51.79878048780488,48.84146341463415,17.237787540748783,-26.24427571577916
0.43359375,-0.73193359375,1.4189453125,69.57870588235295,4.847560975609756,-48.9329268292683,35.79268292682927,15.193551354430987,-26.257655459671128
0.40234375,-0.732421875,1.505859375,69.64752941176471,8.109756097560977,-42.6219512195122,29.176829268292686,13.510494700452442,-25.16873190670245,66.146,739.6296317752041,47.75390625
0.3291015625,-0.76171875,1.55029296875,69.56811764705884,20.152439024390247,-35.457317073170735,26.676829268292686,10.78714075085738,-25.6702581095878
0.33935546875,-0.7744140625,1.53857421875,69.6104705882353,37.01219512195122,-28.445121951219516,27.439024390243905,11.145440427665559,-26.174963343395778
0.4326171875,-0.7939453125,1.4853515625,69.50988235294118,56.768292682926834,-20.79268292682927,26.250000000000004,14.405787902614462,-27.16656545555263
0.51953125,-0.77197265625,1.3798828125,69.60517647058823,75.54878048780489,-17.408536585365855,20.57926829268293,18.18944792841789,-27.635122019212417
0.55908203125,-0.74267578125,1.21826171875,69.56811764705884,87.22560975609757,-18.719512195121954,8.658536585365855,21.39753711680466,-28.98911286489893,66.146,739.6296317752041,47.7314453125
0.54638671875,-0.70556640625,1.10009765625,69.56811764705884,88.01829268292684,-21.76829268292683,-3.1707317073170733,22.68844787774073,-29.873877064347536
0.52490234375,-0.6455078125,0.97021484375,69.56811764705884,80.3658536585366,-33.50609756097561,-17.408536585365855,24.24831776152134,-30.33505335868035
0.51416015625,-0.609375,0.90380859375,69.53635294117647,69.84756097560977,-44.63414634146342,-29.26829268292683,25.252556035261115,-30.371905123105527
0.47021484375,-0.572265625,0.880859375,69.48341176470589,54.451219512195124,-52.31707317073171,-43.04878048780488,24.115234296131018,-29.81795273627698
0.47314453125,-0.544921875,0.857421875,69.59988235294118,39.78658536585366,-48.32317073170732,-52.16463414634147,24.972614703209263,-29.09320008885081,66.146,739.6296317752041,47.720703125
0.40380859375,-0.52734375,1.0322265625,69.55223529411765,35.85365853658537,-47.19512195121952,-57.04268292682927,19.20690802184334,-25.44369279023232
0.32470703125,-0.50732421875,1.08154296875,69.56811764705884,40.76219512195122,-25.0609756097561,-60.82317073170732,15.206092200910742,-24.192665235716294
0.30908203125,-0.48583984375,1.01220703125,69.53635294117647,51.40243902439025,-8.719512195121952,-63.26219512195122,15.391497801214058,-24.65777680542684
0.30126953125,-0.43603515625,0.96533203125,69.5734117647059,68.17073170731707,-0.3658536585365854,-64.23780487804879,15.876815113721687,-23.324921040774136
0.31591796875,-0.40185546875,0.86474609375,69.5734117647059,74.78658536585367,1.2804878048780488,-66.79878048780489,18.330254053307677,-23.580917566434255,66.146,739.6296317752041,47.6982421875
0.32666015625,-0.353515625,0.796875,69.56811764705884,72.10365853658537,2.225609756097561,-72.5609756097561,20.541429988354835,-22.317058437141323
0.32861328125,-0.32275390625,0.76318359375,69.60517647058823,64.14634146341464,-0.701219512195122,-80.33536585365854,21.632119755492887,-21.227532809030794
0.30810546875,-0.2880859375,0.76416015625,69.5575294117647,53.17073170731708,-11.067073170731708,-90.27439024390245,20.67023152230894,-19.271986292125924
0.2431640625,-0.2548828125,0.75,69.49929411764707,45.73170731707317,-21.128048780487806,-97.46951219512196,17.065234313150327,-17.91483447086443
0.19970703125,-0.2265625,0.7978515625,69.5575294117647,39.237804878048784,-23.50609756097561,-103.8719512195122,13.538313470813497,-15.4011442267391,66.164,739.6296317752041,47.6328125
0.07373046875,-0.17431640625,0.9423828125,69.56811764705884,24.29878048780488,-15.701219512195124,-107.65243902439025,4.399285361056551,-10.448559000208123
0.0009765625,-0.1943359375,1.00341796875,69.53635294117647,22.073170731707318,-4.878048780487806,-106.3719512195122,0.05474501847740527,-10.960992748719198
-0.01611328125,-0.18115234375,1.064453125,69.59988235294118,39.35975609756098,0.701219512195122,-104.57317073170732,-0.8549645082091145,-9.657177145971243
-0.0634765625,-0.15673828125,1.05078125,69.57870588235295,56.21951219512196,1.981707317073171,-105.15243902439025,-3.4192371354374043,-8.46867688295505
-0.14208984375,-0.107421875,1.02490234375,69.57870588235295,65.76219512195122,4.359756097560976,-104.32926829268294,-7.850565355892686,-5.927147660949429,66.164,739.3486399729043,47.599609375
-0.2158203125,-0.068359375,1.0029296875,69.5310588235294,68.56707317073172,8.597560975609756,-102.8658536585366,-12.116998002216052,-3.8122308144506447
-0.31201171875,-0.0009765625,1.00537109375,69.56282352941176,71.03658536585367,9.573170731707318,-99.48170731707317,-17.241451747393302,-0.053153111710078756
-0.37255859375,0.03515625,0.95556640625,69.55223529411765,73.10975609756098,7.317073170731708,-95.73170731707317,-21.286827093578765,1.9632087583940332
-0.4306640625,0.08251953125,0.908203125,69.56811764705884,74.26829268292684,6.859756097560976,-92.13414634146342,-25.278939904611846,4.693322219221533
-0.517578125,0.14013671875,0.9130859375,69.56282352941176,65.42682926829269,6.402439024390245,-85.76219512195122,-29.261238905628986,7.604997234782578,66.164,739.3486399729043,47.56640625
-0.6015625,0.1513671875,0.92236328125,69.56811764705884,57.40853658536586,6.4939024390243905,-79.29878048780489,-32.76485170799091,7.826666751569108
-0.708984375,0.13330078125,0.9541015625,69.57870588235295,54.90853658536586,8.048780487804878,-69.29878048780489,-36.350952278979875,6.398503169791623
-0.80224609375,0.12060546875,0.98681640625,69.59988235294118,57.713414634146346,9.115853658536587,-60.64024390243903,-38.90212337283002,5.417305545151481
-0.92138671875,0.13232421875,0.990234375,69.61576470588236,65.15243902439025,11.067073170731708,-48.29268292682927,-42.68458355082038,5.587453112575562
-1.0009765625,0.1484375,0.98486328125,69.54164705882354,72.89634146341464,9.51219512195122,-36.58536585365854,-45.143168024259325,6.0341062567201105,66.164,739.6296317752041,47.5439453125
-1.02001953125,0.162109375,0.947265625,69.5575294117647,82.6829268292683,5.426829268292684,-21.158536585365855,-46.705386695689455,6.642473550415585
-1.0205078125,0.15966796875,0.87158203125,69.5204705882353,90.85365853658537,-1.6158536585365855,-8.689024390243903,-49.03287532194092,6.7847822552837895
-1.00927734375,0.1669921875,0.74169921875,69.55223529411765,98.84146341463415,-12.378048780487806,2.713414634146342,-53.010110981556316,7.594286873867278
-0.9619140625,0.1962890625,0.5703125,69.51517647058824,104.14634146341464,-28.201219512195124,13.506097560975611,-57.91115839599271,9.955635836789961
-0.93017578125,0.2431640625,0.42138671875,69.59458823529411,96.76829268292684,-40.73170731707317,23.323170731707318,-62.38889899394872,13.393968418747006,66.164,739.6296317752041,47.521484375
-0.88232421875,0.26611328125,0.365234375,69.59988235294118,79.48170731707317,-48.47560975609756,32.40853658536586,-62.879903928462184,15.57171521599152
-0.78662109375,0.27294921875,0.349609375,69.58929411764706,57.34756097560976,-58.9329268292683,40.518292682926834,-60.58330197608993,17.592934437062954
-0.61767578125,0.23974609375,0.4140625,69.61576470588236,28.475609756097562,-72.01219512195122,47.6829268292683,-52.238033862027805,17.869524838103782
-0.52685546875,0.20263671875,0.4931640625,69.62635294117648,12.80487804878049,-79.39024390243902,50.457317073170735,-44.658585254485125,15.684425127134466
-0.439453125,0.123046875,0.56103515625,69.58929411764706,9.603658536585368,-79.35975609756099,55.15243902439025,-37.41976531055891,9.7960729365628,66.164,739.9106259006205,47.466796875
-0.36376953125,0.0869140625,0.607421875,69.53635294117647,17.195121951219512,-72.92682926829269,59.42073170731708,-30.661010849954607,6.998435289323962
-0.267578125,0.04638671875,0.61328125,69.56282352941176,28.384146341463417,-61.524390243902445,66.09756097560977,-23.51207645144525,3.965725428157829
-0.14794921875,0.017578125,0.5927734375,69.52576470588235,35.30487804878049,-54.90853658536586,70.39634146341464,-14.00811636840185,1.6480266894266324
0.02490234375,0.02099609375,0.5625,69.584,37.926829268292686,-48.963414634146346,72.5609756097561,2.5331150009190013,2.135562360970765
0.2705078125,0.029296875,0.53955078125,69.59458823529411,34.420731707317074,-47.59146341463415,71.5548780487805,26.59346327448045,2.778944389591343,66.164,739.6296317752041,47.4326171875
0.50341796875,0.0185546875,0.5361328125,69.5575294117647,25.09146341463415,-55.94512195121952,64.9390243902439,43.180374914492546,1.4452350786771642
0.63818359375,0.00830078125,0.5458984375,69.57870588235295,15.884146341463415,-61.89024390243903,56.18902439024391,49.453246257753754,0.5662987814312082
0.6982421875,0.00830078125,0.5693359375,69.57870588235295,8.658536585365855,-66.09756097560977,45.15243902439025,50.80374469203781,0.5278802364097802
0.71435546875,-0.01416015625,0.61669921875,69.55223529411765,-0.5792682926829269,-69.51219512195122,33.65853658536586,49.18866485919718,-0.8596298003431502
0.7275390625,-0.01513671875,0.6728515625,69.494,-4.878048780487806,-65.33536585365854,25.975609756097562,47.22913038923419,-0.8750956038185708,66.164,739.6296317752041,47.4111328125
0.68359375,-0.03125,0.73974609375,69.58929411764706,-4.969512195121951,-56.768292682926834,19.23780487804878,42.71533011040039,-1.7770598393052919
0.7138671875,-0.017578125,0.79150390625,69.65282352941176,-2.957317073170732,-49.176829268292686,15.884146341463415,42.04066669431227,-0.9448229609670707
0.7607421875,-0.01171875,0.8388671875,69.5734117647059,0.9756097560975611,-42.804878048780495,14.207317073170733,42.20111137130199,-0.5928872649657458
0.8349609375,-0.0341796875,0.84765625,69.56282352941176,4.603658536585367,-30.884146341463417,12.896341463414636,44.54444496491801,-1.6454648732964658
0.8818359375,-0.0615234375,0.77734375,69.5734117647059,15.914634146341465,-7.957317073170732,8.201219512195122,48.51487056359774,-2.9959129456700158,66.164,739.9106259006205,47.3994140625
0.90625,-0.01513671875,0.7275390625,69.57870588235295,22.53048780487805,4.51219512195122,3.2926829268292686,51.23639061094128,-0.7462186500324115
0.91796875,0.01513671875,0.71435546875,69.59458823529411,14.237804878048781,12.286585365853659,-4.847560975609756,52.10401695774238,0.7455653548232343
0.8583984375,0.00439453125,0.7177734375,69.54164705882354,-3.689024390243903,18.04878048780488,-14.29878048780488,50.097863386389264,0.22502082501676798
0.8056640625,-0.005859375,0.81103515625,69.5469411764706,-23.445121951219516,13.231707317073171,-26.00609756097561,44.80890168091466,-0.2936658837081754
0.74267578125,-0.0419921875,0.90673828125,69.584,-34.60365853658537,3.3231707317073176,-35.36585365853659,39.289553121523724,-2.051884375113407,66.164,739.9106259006205,47.3779296875
0.67626953125,-0.0302734375,1.05615234375,69.56811764705884,-41.09756097560976,-0.30487804878048785,-44.81707317073171,32.62133605026801,-1.3828132314984694
0.5791015625,-0.02734375,1.14208984375,69.5575294117647,-37.22560975609756,0.030487804878048783,-50.94512195121952,26.88086199273035,-1.2232883127542982
0.5068359375,0.0048828125,1.19677734375,69.5310588235294,-23.871951219512198,-3.628048780487805,-54.207317073170735,22.952516147919333,0.21525607272480268
0.4619140625,0.02490234375,1.17041015625,69.56282352941176,-10.396341463414634,-6.2804878048780495,-55.00000000000001,21.53273911231253,1.1337959667970603
0.4609375,0.048828125,1.1337890625,69.46223529411765,0.30487804878048785,-1.1890243902439026,-56.524390243902445,22.105493846961696,2.284625756350829,66.164,739.9106259006205,47.4111328125
0.439453125,0.08056640625,1.09765625,69.62105882352941,2.5609756097560976,7.8048780487804885,-58.59756097560976,21.76592577463431,3.898137469905419
0.40380859375,0.119140625,1.0537109375,69.55223529411765,2.1951219512195124,11.52439024390244,-60.426829268292686,20.84677413083971,6.02697707900481
0.3642578125,0.17138671875,1.021484375,69.584,-3.231707317073171,12.195121951219512,-63.07926829268293,19.37579752593002,8.980450330018844
0.30810546875,0.21240234375,1.0439453125,69.54164705882354,-10.457317073170733,12.53048780487805,-65.15243902439025,16.13040868208236,11.04192395667102
0.22509765625,0.23583984375,1.0947265625,69.54164705882354,-17.865853658536587,11.585365853658537,-66.46341463414635,11.36547439571533,11.915628682299001,66.164,740.1916223492179,47.4326171875
0.16796875,0.26025390625,1.1416015625,69.49929411764707,-17.743902439024392,8.506097560975611,-66.52439024390245,8.163599692775808,12.7100660830706
0.0810546875,0.30078125,1.18505859375,69.5575294117647,-13.506097560975611,6.920731707317074,-65.70121951219512,3.7928822170220666,14.209734033817133
0.00341796875,0.33056640625,1.21630859375,69.64752941176471,-8.140243902439025,9.390243902439025,-63.04878048780488,0.1553714932740214,15.204446816164792
-0.0732421875,0.3720703125,1.2490234375,69.5575294117647,-0.7317073170731708,12.286585365853659,-58.50609756097561,-3.2165855085610024,16.561326684827687
-0.115234375,0.400390625,1.26025390625,69.66870588235295,8.323170731707318,14.02439024390244,-50.97560975609756,-4.9804611510414025,17.556665414468597,66.164,740.1916223492179,47.533203125
-0.1337890625,0.41943359375,1.224609375,69.54164705882354,17.408536585365855,15.365853658536587,-44.63414634146342,-5.900919370116111,18.80258428099811
-0.10888671875,0.427734375,1.14111328125,69.56811764705884,29.35975609756098,15.731707317073171,-38.62804878048781,-5.105855163923938,20.462788029903255
-0.0869140625,0.44384765625,1.06298828125,69.55223529411765,35.82317073170732,14.54268292682927,-36.09756097560976,-4.314834630036261,22.59504302448573
-0.099609375,0.470703125,0.94873046875,69.56811764705884,38.018292682926834,9.908536585365855,-35.36585365853659,-5.373017949761816,26.263013528660327
-0.15234375,0.48095703125,0.880859375,69.55223529411765,34.05487804878049,8.26219512195122,-34.51219512195122,-8.631365349203627,28.281214677271052,66.164,740.1916223492179,47.599609375
-0.228515625,0.49365234375,0.853515625,69.56811764705884,25.823170731707318,9.237804878048781,-32.743902439024396,-13.048609950446906,29.191987287181604
-0.333984375,0.45556640625,0.83544921875,69.64752941176471,15.213414634146343,7.652439024390245,-27.713414634146343,-19.339874987795927,26.854673491709487
-0.39013671875,0.44580078125,0.861328125,69.5734117647059,10.670731707317074,7.164634146341464,-22.621951219512198,-21.913034461393664,25.242240441510923
-0.4384765625,0.4296875,0.8876953125,69.58929411764706,8.567073170731708,6.615853658536586,-16.402439024390244,-23.97003550748681,23.460425134352796
-0.45947265625,0.404296875,0.92236328125,69.584,8.902439024390244,3.1707317073170733,-6.890243902439025,-24.524486792419946,21.422166293539277,66.164,740.1916223492179,47.69921875
-0.44287109375,0.3798828125,0.9306640625,69.584,10.640243902439025,-0.12195121951219513,0.7926829268292683,-23.777129625476693,20.232892116324027
-0.39404296875,0.34130859375,0.923828125,69.61576470588236,14.29878048780488,0.9756097560975611,8.048780487804878,-21.806365267378904,18.7692379937354
-0.37255859375,0.314453125,0.921875,69.5469411764706,17.225609756097562,2.25609756097561,13.689024390243903,-20.931449694950704,17.549685546057376
-0.32861328125,0.2783203125,0.8876953125,69.59458823529411,20.09146341463415,4.786585365853659,19.085365853658537,-19.45486211678157,16.38498113316498
-0.30029296875,0.2744140625,0.88037109375,69.53635294117647,21.52439024390244,5.0,22.34756097560976,-18.037591068767252,16.436731657058825,66.164,740.1916223492179,47.7216796875
-0.26806640625,0.27685546875,0.85546875,69.584,18.871951219512198,2.9268292682926833,26.371951219512198,-16.601013513236218,17.16189723844782
-0.2490234375,0.27099609375,0.85107421875,69.5575294117647,16.615853658536587,0.27439024390243905,29.87804878048781,-15.57879904960849,16.993318127084823
-0.2060546875,0.2607421875,0.83984375,69.57870588235295,15.152439024390246,-2.987804878048781,33.65853658536586,-13.187400553876747,16.779240537871313
-0.18017578125,0.2333984375,0.84423828125,69.584,12.408536585365855,-5.457317073170732,37.22560975609756,-11.623717596095574,15.129417300046201
-0.1533203125,0.21826171875,0.875,69.53635294117647,7.347560975609757,-1.6158536585365855,40.73170731707317,-9.648813062070097,13.804055743438767,66.164,740.1916223492179,47.7431640625
-0.12451171875,0.20263671875,0.9189453125,69.5734117647059,3.8414634146341466,3.658536585365854,45.1219512195122,-7.537333357157191,12.326150105252761
-0.076171875,0.173828125,0.96630859375,69.58929411764706,6.615853658536586,13.109756097560977,50.15243902439025,-4.436257783733133,10.166926225495502
-0.01806640625,0.1611328125,0.962890625,69.57870588235295,15.27439024390244,20.762195121951223,53.018292682926834,-1.0601579108145966,9.49836931786002
0.029296875,0.17919921875,0.91064453125,69.584,28.10975609756098,23.07926829268293,53.8719512195122,1.808010239268376,11.126970316536108
0.0478515625,0.21923828125,0.85400390625,69.5575294117647,30.945121951219516,18.689024390243905,54.69512195121952,3.1065185827687403,14.37633126038737,66.164,740.4726211210289,47.8095703125
0.0703125,0.2119140625,0.78515625,69.6369411764706,25.30487804878049,17.621951219512198,56.524390243902445,4.9414191305407345,15.046793227109736
0.10791015625,0.2568359375,0.7880859375,69.51517647058824,17.134146341463417,21.3109756097561,58.35365853658537,7.417488338064171,17.89451887857947
0.14111328125,0.25927734375,0.80126953125,69.56282352941176,8.810975609756099,21.920731707317074,60.365853658536594,9.512019930480772,17.6759843210925
0.18310546875,0.2548828125,0.86767578125,69.5734117647059,-1.3414634146341464,18.29268292682927,62.46951219512196,11.446202730053507,16.035880612672376
0.2529296875,0.22802734375,0.8857421875,69.60517647058823,-3.231707317073171,16.371951219512198,62.560975609756106,15.45823757056373,13.903891290497233,66.164,740.1916223492179,47.85546875
0.30712890625,0.224609375,0.9248046875,69.56282352941176,-1.6158536585365855,11.128048780487806,59.78658536585366,17.885908620831103,12.979636724479288
0.29638671875,0.22119140625,0.9521484375,69.61576470588236,-4.146341463414634,10.0,56.707317073170735,16.867721303447677,12.506288585554627
0.28125,0.22802734375,0.9931640625,69.584,-5.823170731707317,13.353658536585368,54.51219512195122,15.429745478441461,12.457130910200888
0.26904296875,0.23291015625,1.02880859375,69.6104705882353,-3.963414634146342,15.914634146341465,53.84146341463415,14.308506894669556,12.354008477818976
0.291015625,0.23974609375,1.02099609375,69.56282352941176,0.7926829268292683,16.981707317073173,54.35975609756098,15.508467914562283,12.725192313704706,66.164,740.1916223492179,47.85546875
0.328125,0.24609375,1.00244140625,69.53635294117647,7.8048780487804885,20.457317073170735,52.987804878048784,17.63477755824117,13.132944953578654
0.349609375,0.28564453125,0.93505859375,69.61576470588236,15.30487804878049,22.682926829268293,49.66463414634147,19.67592541885679,15.967781321971202
0.3359375,0.30078125,0.85986328125,69.57870588235295,17.896341463414636,24.573170731707318,46.463414634146346,20.242770941925198,18.04654630157507
0.29443359375,0.32421875,0.79931640625,69.53635294117647,14.939024390243905,23.384146341463417,42.896341463414636,18.847090071200178,20.83776102595481
0.23779296875,0.345703125,0.75341796875,69.55223529411765,4.634146341463415,20.30487804878049,40.88414634146342,16.006188962246615,23.63271516206808,66.164,740.1916223492179,47.85546875
0.20263671875,0.3505859375,0.751953125,69.57870588235295,-6.432926829268293,18.140243902439025,40.701219512195124,13.725171483296663,24.23605614270262
0.20166015625,0.34619140625,0.78759765625,69.57870588235295,-16.158536585365855,19.420731707317074,41.646341463414636,13.191971723698618,23.065136539452606
0.22021484375,0.310546875,0.8515625,69.59458823529411,-23.140243902439025,20.243902439024392,40.09146341463415,13.655442596570797,19.44631486315812
0.2275390625,0.30224609375,0.9169921875,69.5575294117647,-23.170731707317074,20.975609756097562,38.65853658536586,13.260652051679562,17.739710292311898
0.21435546875,0.27783203125,0.943359375,69.57870588235295,-19.02439024390244,21.493902439024392,36.920731707317074,12.296381409812524,16.02367757001335,66.164,740.1916223492179,47.85546875
0.228515625,0.2802734375,0.9580078125,69.62105882352941,-13.993902439024392,22.25609756097561,34.96951219512196,12.89484362822361,15.885017432789603
0.22216796875,0.25830078125,0.9443359375,69.61576470588236,-8.048780487804878,21.55487804878049,31.920731707317074,12.785473208341703,14.909504846243697
0.20849609375,0.28564453125,0.9033203125,69.62635294117648,-1.5853658536585367,20.03048780487805,28.170731707317074,12.411255167439037,17.124875882105083
0.23779296875,0.27197265625,0.857421875,69.60517647058823,0.6402439024390244,10.640243902439025,26.52439024390244,14.80766687671709,16.99634940113897
0.19970703125,0.2939453125,0.81201171875,69.59988235294118,-2.682926829268293,5.457317073170732,23.78048780487805,13.021058897780406,19.36765777476662,66.18199999999999,740.1916223492179,47.8779296875
0.1904296875,0.27587890625,0.77587890625,69.60517647058823,-9.298780487804878,1.1585365853658538,20.03048780487805,13.020967777343186,19.050850868215523
0.16015625,0.259765625,0.822265625,69.51517647058824,-21.06707317073171,5.060975609756098,17.225609756097562,10.521475881259688,17.22800166204263
0.10302734375,0.255859375,0.91845703125,69.584,-29.26829268292683,7.134146341463415,17.195121951219512,6.167437393371037,15.474159996893702
0.0654296875,0.20361328125,0.9951171875,69.65282352941176,-26.52439024390244,10.27439024390244,18.719512195121954,3.6856802644933198,11.539564150532176
0.07763671875,0.18603515625,1.0390625,69.5310588235294,-13.445121951219514,11.615853658536587,20.0609756097561,4.20644566395162,10.123129875254515,66.18199999999999,740.1916223492179,47.8779296875
0.107421875,0.1689453125,0.990234375,69.56811764705884,7.77439024390244,8.414634146341465,19.512195121951223,6.103789440783223,9.626678239109548
0.1015625,0.1904296875,0.90673828125,69.54164705882354,22.439024390243905,6.5548780487804885,17.743902439024392,6.255630803610986,11.789025913021595
0.0654296875,0.2041015625,0.802734375,69.60517647058823,31.707317073170735,5.731707317073171,17.103658536585368,4.516706301164629,14.220384629523277
0.02783203125,0.23388671875,0.67431640625,69.5469411764706,35.79268292682927,3.780487804878049,17.98780487804878,2.2331386218325315,19.11401667383414
0.0341796875,0.2529296875,0.55322265625,69.62105882352941,33.50609756097561,1.524390243902439,19.75609756097561,3.216003917480352,24.528314241762864,66.18199999999999,740.1916223492179,47.8662109375
0.08251953125,0.255859375,0.47412109375,69.59988235294118,25.792682926829272,0.48780487804878053,22.439024390243905,8.708181337662246,27.99767184280832
0.12890625,0.2392578125,0.39697265625,69.62105882352941,11.250000000000002,7.8048780487804885,24.878048780487806,15.542063464905162,29.82308490803149
0.16455078125,0.24853515625,0.39599609375,69.61576470588236,-2.408536585365854,19.908536585365855,25.335365853658537,19.389980390603068,30.09546792403231
0.16748046875,0.2587890625,0.47509765625,69.5575294117647,-18.231707317073173,38.62804878048781,26.158536585365855,17.201019061761336,27.190550172094337
0.16015625,0.26025390625,0.578125,69.5469411764706,-27.134146341463417,48.04878048780488,27.34756097560976,14.176952435519624,23.452632164336944,66.18199999999999,740.1916223492179,47.85546875
0.1845703125,0.23388671875,0.65576171875,69.5734117647059,-27.682926829268297,52.5609756097561,26.79878048780488,14.847703740274602,18.948595119890403
0.20654296875,0.22509765625,0.701171875,69.58929411764706,-19.207317073170735,50.335365853658544,25.152439024390247,15.667208247438918,17.116117995333187
0.19775390625,0.263671875,0.69287109375,69.6104705882353,-4.573170731707317,46.89024390243903,21.52439024390244,14.935873544043321,20.099433072715794
0.1572265625,0.29736328125,0.6171875,69.56811764705884,13.26219512195122,44.420731707317074,18.353658536585368,12.925466079546045,25.027504408697283
0.05517578125,0.3271484375,0.4912109375,69.5575294117647,25.335365853658537,36.493902439024396,17.225609756097562,5.341029306340393,33.498255991775075,66.18199999999999,740.1916223492179,47.8662109375
-0.013671875,0.3466796875,0.39501953125,69.5575294117647,21.585365853658537,28.384146341463417,19.54268292682927,-1.490114121812257,41.25404995426491
-0.0126953125,0.38623046875,0.34130859375,69.59988235294118,2.9268292682926833,24.085365853658537,23.750000000000004,-1.410946743946024,48.513585962627126
-0.0419921875,0.3603515625,0.3955078125,69.5469411764706,-23.658536585365855,34.390243902439025,31.371951219512198,-4.487521693748295,42.17716903944643
-0.00830078125,0.37548828125,0.5810546875,69.5734117647059,-59.024390243902445,56.40243902439025,40.274390243902445,-0.687427902321317,32.868626818786616
0.02978515625,0.3330078125,0.76904296875,69.5469411764706,-75.39634146341464,76.46341463414635,47.25609756097561,2.0355034110340244,23.39772351607099,66.18199999999999,740.1916223492179,47.85546875
0.1015625,0.2900390625,0.97509765625,69.56811764705884,-71.70731707317074,90.88414634146342,53.04878048780488,5.701146365396139,16.480627641746683
0.1162109375,0.25439453125,1.08935546875,69.66341176470588,-52.25609756097561,91.70731707317074,54.48170731707317,5.930816399857363,13.072967651280967
0.1474609375,0.20654296875,1.12109375,69.5575294117647,-21.34146341463415,84.63414634146342,52.40853658536586,7.370630607184149,10.351535813344366
0.197265625,0.232421875,1.10400390625,69.5204705882353,1.8902439024390245,74.20731707317074,47.743902439024396,9.917863600767465,11.708454921506302
0.21044921875,0.21630859375,1.0009765625,69.54164705882354,12.77439024390244,55.97560975609757,40.274390243902445,11.61263823454026,11.94065588017806,66.18199999999999,740.1916223492179,47.888671875
0.19287109375,0.26025390625,0.90576171875,69.54164705882354,11.646341463414634,41.06707317073171,31.219512195121954,11.566283432582834,15.697000348147347
0.14013671875,0.2861328125,0.80810546875,69.584,4.908536585365854,26.34146341463415,25.09146341463415,9.283979978570665,19.23243435886796
0.08349609375,0.39990234375,0.7734375,69.59458823529411,-8.079268292682928,19.23780487804878,22.195121951219512,5.477617776281628,27.205822662740356
-0.02099609375,0.42578125,0.751953125,69.53635294117647,-18.963414634146343,18.262195121951223,22.652439024390247,-1.39186104150703,29.510432360471352
-0.07763671875,0.44482421875,0.75341796875,69.57870588235295,-23.84146341463415,23.56707317073171,29.664634146341466,-5.0708314815370565,30.425648899224665,66.18199999999999,740.1916223492179,47.9228515625
-0.068359375,0.4287109375,0.7734375,69.64223529411765,-23.445121951219516,35.243902439024396,35.30487804878049,-4.420331868863172,28.9048692625194
-0.07666015625,0.36767578125,0.763671875,69.72164705882352,-18.963414634146343,53.14024390243903,38.56707317073171,-5.168149476687386,25.5967596736414
-0.0595703125,0.34228515625,0.76904296875,69.63164705882353,-18.170731707317074,61.615853658536594,36.859756097560975,-4.047927658947482,23.929258761791537
-0.10546875,0.3564453125,0.82861328125,69.56811764705884,-31.82926829268293,60.701219512195124,33.56707317073171,-6.668977709427983,23.10930223473178
-0.1357421875,0.33642578125,0.8603515625,69.6104705882353,-48.75000000000001,45.243902439024396,29.512195121951223,-8.359255567760542,21.11930006445539,66.18199999999999,740.1916223492179,47.966796875
-0.095703125,0.2998046875,0.875,69.61576470588236,-61.28048780487806,16.128048780487806,23.29268292682927,-5.907368180942659,18.808980867353554
-0.0400390625,0.3154296875,0.87939453125,69.61576470588236,-66.89024390243902,-9.451219512195122,16.28048780487805,-2.454007385962559,19.71353682997406
-0.01806640625,0.3388671875,0.9208984375,69.6104705882353,-78.10975609756099,-30.27439024390244,9.969512195121952,-1.0547709273271866,20.19875843078784
0.0830078125,0.255859375,0.9599609375,69.59988235294118,-94.57317073170732,-30.823170731707318,4.847560975609756,4.776148957356282,14.871140581843223
-0.01953125,0.162109375,1.00634765625,69.61576470588236,-96.00609756097562,-14.756097560975611,1.128048780487805,-1.0977125007874238,9.149290379712324,66.18199999999999,740.1916223492179,47.9892578125
-0.109375,0.0908203125,1.087890625,69.57870588235295,-93.35365853658537,1.4939024390243905,2.347560975609756,-5.721375511880868,4.748327095043095
-0.06494140625,0.0654296875,1.17431640625,69.62635294117648,-99.1158536585366,9.603658536585368,5.823170731707317,-3.160423971616731,3.1842109606064084
-0.00244140625,-0.0244140625,1.240234375,69.56282352941176,-101.18902439024392,16.00609756097561,6.7682926829268295,-0.11276497577713977,-1.1277218414596348
0.1689453125,-0.080078125,1.3271484375,69.584,-98.59756097560977,13.01829268292683,3.9024390243902443,7.241672941579702,-3.4253778773232435
0.2333984375,-0.1630859375,1.35986328125,69.5310588235294,-92.13414634146342,1.2804878048780488,-4.115853658536586,9.671021342863863,-6.741074932966371,66.18199999999999,740.1916223492179,47.9892578125
0.24560546875,-0.240234375,1.375,69.59988235294118,-85.88414634146342,-13.78048780487805,-15.396341463414636,9.979425683103354,-9.75902781739994
0.32080078125,-0.34130859375,1.37158203125,69.6369411764706,-84.29878048780489,-28.993902439024392,-24.176829268292686,12.787734648521745,-13.620467911341366
0.451171875,-0.4462890625,1.3388671875,69.5469411764706,-86.46341463414635,-43.68902439024391,-38.59756097560976,17.728432973973263,-17.53030886697697
0.53369140625,-0.4951171875,1.32666015625,69.5469411764706,-92.8048780487805,-49.085365853658544,-52.835365853658544,20.650932812943143,-19.097885433618128
0.521484375,-0.5107421875,1.3662109375,69.53635294117647,-102.56097560975611,-54.72560975609757,-66.5548780487805,19.673714220884456,-19.25228460564795,66.2,739.9106259006205,48.0224609375
0.48046875,-0.560546875,1.390625,69.59988235294118,-111.40243902439025,-61.646341463414636,-76.79878048780489,17.768126516371666,-20.856370691540825
0.47900390625,-0.56787109375,1.4453125,69.57870588235295,-112.31707317073172,-65.51829268292684,-82.43902439024392,17.143089326475195,-20.453324374816624
0.4306640625,-0.5625,1.53076171875,69.5734117647059,-112.95731707317074,-77.04268292682927,-86.58536585365854,14.792698160795657,-19.480286243971612
0.46728515625,-0.59033203125,1.5673828125,69.6104705882353,-108.50609756097562,-82.92682926829269,-87.07317073170732,15.589011963585572,-19.84636588801505
0.4970703125,-0.57275390625,1.58837890625,69.60517647058823,-94.57317073170732,-83.50609756097562,-88.8109756097561,16.40377915381683,-18.99002191561758,66.2,739.9106259006205,48.01171875
0.4541015625,-0.568359375,1.64306640625,69.59988235294118,-85.33536585365854,-76.3719512195122,-89.96951219512196,14.638028745424492,-18.439136053152865
0.408203125,-0.5888671875,1.71142578125,69.56282352941176,-81.3109756097561,-56.98170731707317,-88.47560975609757,12.709768178590947,-18.50494355711607
0.458984375,-0.58447265625,1.81640625,69.64752941176471,-69.20731707317074,-30.33536585365854,-86.52439024390245,13.525099436417566,-17.326277008844087
0.4775390625,-0.6025390625,1.87744140625,69.62105882352941,-53.41463414634147,-17.53048780487805,-89.45121951219512,13.614273628613475,-17.2773917702749
0.4619140625,-0.5751953125,1.85400390625,69.59458823529411,-29.451219512195124,-7.408536585365854,-96.95121951219512,13.384909025156476,-16.754018180855137,66.2,739.9106259006205,48.033203125
0.31591796875,-0.4658203125,1.88818359375,69.584,-16.493902439024392,-9.939024390243903,-102.46951219512196,9.226695978279574,-13.675494667307037
0.07568359375,-0.408203125,1.92041015625,69.56811764705884,-18.75,-32.34756097560976,-105.00000000000001,2.207595274899698,-11.991170937863771
-0.01806640625,-0.400390625,1.90673828125,69.584,-16.76829268292683,-46.18902439024391,-102.98780487804879,-0.531276910457195,-11.858559260731779
-0.2490234375,-0.384765625,1.94091796875,69.55223529411765,-8.597560975609756,-48.44512195121952,-97.8658536585366,-7.17312090354515,-11.123999146519832
-0.3857421875,-0.31689453125,1.98876953125,69.61576470588236,0.7621951219512195,-32.13414634146342,-88.9329268292683,-10.843315880417482,-8.89054412515133,66.2,739.6296317752041,48.0673828125
-0.5478515625,-0.267578125,2.0498046875,69.56811764705884,14.817073170731708,-8.719512195121952,-72.01219512195122,-14.843385992121375,-7.187726307981096
-0.62646484375,-0.228515625,2.10498046875,69.6369411764706,28.902439024390247,12.317073170731708,-55.518292682926834,-16.482032392710945,-5.94021128357806
-0.6318359375,-0.2197265625,2.07470703125,69.56811764705884,50.701219512195124,27.103658536585368,-39.48170731707317,-16.84886062487914,-5.7850811388195105
-0.64501953125,-0.18212890625,2.07373046875,69.60517647058823,74.1158536585366,33.90243902439025,-26.493902439024392,-17.215614073744042,-4.793809389986207
-0.673828125,-0.17578125,1.97998046875,69.67929411764706,93.75000000000001,34.024390243902445,-14.237804878048781,-18.72600648533435,-4.804167262162012,66.2,739.6296317752041,48.078125
-0.74365234375,-0.14892578125,1.8466796875,69.64223529411765,113.41463414634147,26.3109756097561,-5.213414634146342,-21.87022220573268,-4.278178590012219
-0.806640625,-0.09375,1.73583984375,69.52576470588235,123.87195121951221,16.493902439024392,4.024390243902439,-24.892306541711903,-2.804016589149932
-0.86474609375,-0.06640625,1.6064453125,69.59458823529411,128.1707317073171,6.310975609756098,14.420731707317074,-28.2730768273709,-2.0845807885239642
-0.92041015625,-0.033203125,1.474609375,69.67929411764706,132.7439024390244,1.707317073170732,28.719512195121954,-31.9647413646976,-1.0942796160619772
-0.89501953125,-0.01416015625,1.3095703125,69.62105882352941,141.64634146341464,4.5426829268292686,44.237804878048784,-34.348905845765984,-0.5114708148865608,66.2,739.6296317752041,48.0458984375
-0.82421875,0.03955078125,1.13037109375,69.53635294117647,155.21341463414635,3.8414634146341466,56.463414634146346,-36.08126293960809,1.6194153673334961
-0.736328125,0.06640625,0.8447265625,69.50988235294118,170.21341463414635,-1.524390243902439,67.34756097560977,-40.99048623504578,3.3913590125127024
-0.62109375,0.13037109375,0.58544921875,69.5734117647059,174.26829268292684,-1.8597560975609757,72.6219512195122,-45.99970362804638,8.684461757708245
-0.58251953125,0.2080078125,0.31982421875,69.57870588235295,165.21341463414635,7.591463414634147,77.5609756097561,-56.77753250687289,17.380595683316937
-0.56884765625,0.2705078125,0.16259765625,69.54164705882354,147.5,15.121951219512196,85.33536585365854,-60.977118931358945,24.571059415649454,66.2,739.6296317752041,48.0234375
-0.54345703125,0.2578125,0.00537109375,69.5575294117647,123.23170731707319,31.158536585365855,96.92073170731709,-64.61582562099203,25.37827656328808
-0.49609375,0.2861328125,0.00390625,69.61576470588236,102.71341463414635,44.054878048780495,109.48170731707317,-60.02255977886217,29.97436090469252
-0.40771484375,0.27783203125,0.0537109375,69.55223529411765,74.63414634146342,47.713414634146346,122.95731707317074,-55.2372606619174,34.042959918615885
-0.22802734375,0.220703125,0.16162109375,69.584,39.08536585365854,44.90853658536586,138.20121951219514,-39.813790802925055,38.296303155512916
-0.03857421875,0.14697265625,0.3056640625,69.59988235294118,15.243902439024392,49.48170731707317,146.3719512195122,-6.488573806760082,25.50333397042742,66.2,739.6296317752041,47.990234375
0.17578125,0.09521484375,0.57080078125,69.5734117647059,-7.621951219512196,58.75000000000001,151.7987804878049,16.896600697746734,9.05792611424134
0.41015625,-0.0244140625,0.81982421875,69.56282352941176,-23.628048780487806,64.20731707317074,149.1158536585366,26.56853947166929,-1.5255714174941968
0.60791015625,-0.130859375,1.06787109375,69.584,-30.792682926829272,62.31707317073171,139.26829268292684,29.468456704303968,-6.078817271186495
0.79443359375,-0.216796875,1.29296875,69.5734117647059,-19.35975609756098,47.957317073170735,119.39024390243904,31.214472030998618,-8.130364358809784
0.9208984375,-0.20068359375,1.43603515625,69.63164705882353,-3.3841463414634148,30.853658536585368,101.12804878048782,32.41990668457345,-6.709309873866537,66.2,739.6296317752041,47.9462890625
0.94580078125,-0.21923828125,1.466796875,69.56282352941176,13.932926829268293,14.26829268292683,77.46951219512196,32.52658434355582,-7.159833190467432
0.91064453125,-0.185546875,1.44873046875,69.56282352941176,25.152439024390247,12.926829268292684,60.67073170731708,31.94305316909189,-6.188570179578446
0.80126953125,-0.1474609375,1.4052734375,69.55223529411765,30.823170731707318,14.847560975609758,46.493902439024396,29.55644979578827,-5.20851057309662
0.708984375,-0.1318359375,1.361328125,69.5575294117647,24.603658536585368,0.6097560975609757,38.04878048780488,27.401241793247983,-4.909258236293978
0.7509765625,-0.150390625,1.41357421875,69.60517647058823,3.536585365853659,-19.81707317073171,30.975609756097565,27.84657257805547,-5.367442620623854,66.2,739.6296317752041,47.9130859375
0.87451171875,-0.17333984375,1.51318359375,69.4675294117647,-15.243902439024392,-29.176829268292686,22.195121951219512,29.863295174666874,-5.664131138675039
0.98828125,-0.22119140625,1.6220703125,69.6369411764706,-22.53048780487805,-34.390243902439025,9.51219512195122,31.11873390147813,-6.642280606658368
1.03955078125,-0.2578125,1.662109375,69.60517647058823,-12.317073170731708,-41.21951219512196,-8.567073170731708,31.718131068767917,-7.49188153234804
1.072265625,-0.22412109375,1.71875,69.584,-1.2195121951219514,-49.90853658536586,-25.853658536585368,31.74202813242924,-6.3131599664374045
1.1279296875,-0.22314453125,1.69482421875,69.56282352941176,6.4939024390243905,-67.65243902439025,-51.06707317073171,33.41762081191566,-6.255103645097073,66.2,739.6296317752041,47.890625
1.1064453125,-0.21142578125,1.60595703125,69.57870588235295,19.78658536585366,-86.15853658536587,-77.07317073170732,34.33577850421902,-6.18737378618709
0.93310546875,-0.10888671875,1.501953125,69.53635294117647,34.08536585365854,-102.31707317073172,-108.50609756097562,31.78381163993778,-3.5238454627325098
0.68212890625,-0.04052734375,1.3603515625,69.5734117647059,41.03658536585366,-108.9939024390244,-128.32317073170734,26.620641099086168,-1.5255004385717663
0.39404296875,0.021484375,1.21728515625,69.64223529411765,48.50609756097561,-111.12804878048782,-140.88414634146343,17.934483797250692,0.9619957921858613
0.083984375,0.18505859375,1.03125,69.59458823529411,58.14024390243903,-106.06707317073172,-143.14024390243904,4.58297086044022,10.140616621343504,66.2,739.6296317752041,47.82421875
-0.13232421875,0.29150390625,0.8583984375,69.60517647058823,62.713414634146346,-87.7439024390244,-137.5609756097561,-8.304562192895617,18.553097618319743
-0.32421875,0.45166015625,0.748046875,69.57870588235295,55.274390243902445,-49.84756097560976,-123.96341463414635,-20.356553194903373,28.985995044462793
-0.3896484375,0.56591796875,0.6806640625,69.51517647058824,38.9329268292683,-26.79878048780488,-108.9939024390244,-23.758360271324488,35.8125694285305
-0.36572265625,0.65234375,0.708984375,69.61576470588236,16.585365853658537,-15.152439024390246,-95.21341463414635,-20.786860643205657,39.27373035978028
-0.22607421875,0.6904296875,0.7734375,69.56282352941176,-8.109756097560977,-17.59146341463415,-82.07317073170732,-12.301113067570897,40.59076635306089,66.2,739.9106259006205,47.8134765625
-0.11474609375,0.66845703125,0.82080078125,69.56282352941176,-17.865853658536587,-17.012195121951223,-78.04878048780489,-6.186610207410734,38.888013754335645
-0.1259765625,0.6416015625,0.8076171875,69.57870588235295,-8.01829268292683,-15.182926829268293,-76.64634146341464,-6.963326476560879,38.1299878307384
-0.23291015625,0.6005859375,0.73193359375,69.57870588235295,11.646341463414634,-14.634146341463415,-74.90853658536587,-13.820188565540114,38.02233441026944
-0.39990234375,0.6025390625,0.509765625,69.58929411764706,34.176829268292686,-27.652439024390247,-69.26829268292684,-26.8707418281638,42.922160682809334
-0.4921875,0.5810546875,0.298828125,69.5734117647059,38.201219512195124,-29.481707317073173,-62.50000000000001,-36.98995006271226,45.26019879753185,66.218,739.9106259006205,47.7578125
-0.5478515625,0.599609375,0.2734375,69.50988235294118,18.04878048780488,-10.792682926829269,-51.79878048780488,-39.73742670961824,44.40011584845929
-0.6484375,0.55322265625,0.26904296875,69.55223529411765,-7.469512195121952,14.29878048780488,-40.97560975609756,-46.507900292973275,38.23900910672462
-0.73046875,0.54296875,0.35400390625,69.60517647058823,-24.908536585365855,31.402439024390247,-25.64024390243903,-48.415934270619445,33.778733681558926
